sep=,
DeviceTag:,Xsens_DOT_4,,,,,,,,,,,,,,,,,
FirmwareVersion:,3.0.0,,,,,,,,,,,,,,,,,
AppVersion:,2023.6.1,,,,,,,,,,,,,,,,,
SyncStatus:,Synced,,,,,,,,,,,,,,,,,
OutputRate:,60Hz,,,,,,,,,,,,,,,,,
FilterProfile:,General,,,,,,,,,,,,,,,,,
Measurement Mode:,Sensor fusion Mode - Extended (Quaternion),,,,,,,,,,,,,,,,,
StartTime:,2025-05-05 11:42:28.606 +0200,,,,,,,,,,,,,,,,,
 2025,,,,,,,,,,,,,,,,,,,

PacketCounter,SampleTimeFine,Quat_W,Quat_X,Quat_Y,Quat_Z,FreeAcc_X,FreeAcc_Y,FreeAcc_Z,Status
1, 2141604619, 0.08607882, -0.67930645, -0.035231434, -0.7279348, 0.66045487, 0.21266733, 0.05382061, 0
2, 2141621286, 0.0860651, -0.6792347, -0.03527661, -0.7280011, 0.6296593, 0.21436971, 0.020662308, 0
3, 2141637953, 0.086094536, -0.67916524, -0.03531093, -0.7280609, 0.59857535, 0.28590837, 0.031064987, 0
4, 2141654620, 0.08612035, -0.6791033, -0.035308532, -0.72811556, 0.5970508, 0.2544386, 0.042726517, 0
5, 2141671287, 0.08612767, -0.6790422, -0.03530001, -0.7281722, 0.5729037, 0.18778686, 0.0753603, 0
6, 2141687954, 0.08608666, -0.67898744, -0.03526034, -0.72823, 0.5476455, 0.22958177, 0.063010216, 0
7, 2141704621, 0.08607967, -0.6789193, -0.035266902, -0.7282939, 0.5473907, 0.3188437, 0.06797695, 0
8, 2141721288, 0.08612849, -0.67885023, -0.035301164, -0.728351, 0.53270364, 0.31576654, 0.09565544, 0
9, 2141737955, 0.08614984, -0.67877096, -0.035300806, -0.72842246, 0.5173017, 0.17090662, 0.057276726, 0
10, 2141754622, 0.08621877, -0.67870283, -0.03536809, -0.7284745, 0.53857493, 0.16041082, 0.059854507, 0
11, 2141771289, 0.08626027, -0.6786405, -0.035369452, -0.7285275, 0.55330694, 0.280935, 0.064232826, 0
12, 2141787956, 0.08629872, -0.6785846, -0.03530394, -0.7285783, 0.58703506, 0.24513292, 0.018819809, 0
13, 2141804623, 0.08636414, -0.67852515, -0.035217445, -0.72863, 0.6720249, 0.15012226, 0.04538536, 0
14, 2141821290, 0.08646852, -0.6784641, -0.035149537, -0.72867775, 0.6721851, 0.17962234, 0.03135395, 0
15, 2141837957, 0.086621, -0.67840016, -0.035096087, -0.72872186, 0.61064, 0.30640116, 0.057320595, 0
16, 2141854624, 0.08676104, -0.6783437, -0.034970324, -0.72876376, 0.58432114, 0.2595604, 0.03924942, 0
17, 2141871291, 0.086866364, -0.6782886, -0.034820054, -0.7288097, 0.5853326, 0.21562016, 0.031412125, 0
18, 2141887958, 0.086955994, -0.6782269, -0.034712534, -0.7288615, 0.5908532, 0.24420433, 0.038995743, 0
19, 2141904625, 0.087022275, -0.6781705, -0.034612056, -0.7289109, 0.5557791, 0.25528756, 0.06183529, 0
20, 2141921292, 0.08709316, -0.67811304, -0.03454981, -0.7289588, 0.5692547, 0.28257984, 0.038820267, 0
21, 2141937959, 0.08713498, -0.6780625, -0.034490157, -0.72900367, 0.5839285, 0.26497623, 0.027386665, 0
22, 2141954626, 0.087188646, -0.6780016, -0.034451816, -0.72905564, 0.57376015, 0.20550604, 0.07557011, 0
23, 2141971293, 0.08726603, -0.67793477, -0.034437772, -0.7291092, 0.5079933, 0.18400592, 0.05595398, 0
24, 2141987960, 0.0873377, -0.6778925, -0.034406908, -0.72914135, 0.45143107, 0.24159566, 0.08102703, 0
25, 2142004627, 0.08738791, -0.67784464, -0.034349147, -0.72918254, 0.48042455, 0.29106623, 0.06261921, 0
26, 2142021294, 0.08744581, -0.6777748, -0.034286294, -0.7292436, 0.5039435, 0.24076815, 0.062365532, 0
27, 2142037961, 0.0875344, -0.6777005, -0.034247033, -0.7293037, 0.5177929, 0.1790939, 0.08624458, 0
28, 2142054628, 0.08761604, -0.6776468, -0.034187574, -0.7293467, 0.5355501, 0.25161165, -0.002547264, 0
29, 2142071295, 0.08778754, -0.6775849, -0.034188055, -0.7293835, 0.59065473, 0.3969357, 4.5585632E-4, 0
30, 2142087962, 0.08784579, -0.6775339, -0.034095988, -0.7294282, 0.71531814, 0.3429158, 0.0045318604, 0
31, 2142104629, 0.08787674, -0.6774716, -0.03403649, -0.72948515, 0.6713899, 0.2630942, 0.113285065, 0
32, 2142121296, 0.087924376, -0.67740035, -0.034018297, -0.7295465, 0.4346942, 0.2507335, 0.119627, 0
33, 2142137963, 0.087934926, -0.67734927, -0.033962958, -0.7295952, 0.32269007, 0.3109188, 0.045431137, 0
34, 2142154630, 0.08792581, -0.6772961, -0.0339073, -0.7296481, 0.33829126, 0.28128737, 0.10279369, 0
35, 2142171297, 0.0878962, -0.6772325, -0.03390903, -0.7297107, 0.42194942, 0.28293958, 0.07695007, 0
36, 2142187964, 0.08786213, -0.6771578, -0.03392806, -0.72978324, 0.49180987, 0.27955845, 0.05546379, 0
37, 2142204631, 0.087819755, -0.67708915, -0.03395959, -0.7298506, 0.6042555, 0.31027064, 0.026277542, 0
38, 2142221298, 0.08779318, -0.6770141, -0.034005426, -0.7299212, 0.6972832, 0.2780843, 0.06383419, 0
39, 2142237965, 0.087757766, -0.6769375, -0.03408276, -0.729993, 0.67970175, 0.2399405, 0.06383228, 0
40, 2142254632, 0.087671, -0.6768544, -0.03414944, -0.7300774, 0.5232875, 0.28500253, 0.03447342, 0
41, 2142271299, 0.08759697, -0.6767828, -0.034195956, -0.73015046, 0.3832412, 0.32046244, 0.085048676, 0
42, 2142287966, 0.08755398, -0.6767252, -0.03423755, -0.7302069, 0.3580851, 0.21945111, 0.040670395, 0
43, 2142304633, 0.08747569, -0.676665, -0.034272514, -0.7302704, 0.40677306, 0.15596236, 0.005056381, 0
44, 2142321300, 0.08738474, -0.6766097, -0.03432548, -0.7303301, 0.5240114, 0.196998, 0.054902077, 0
45, 2142337967, 0.08730458, -0.67654544, -0.034371212, -0.7303971, 0.6521127, 0.32939506, 0.05599594, 0
46, 2142354634, 0.08722727, -0.6764838, -0.034372695, -0.73046345, 0.66742474, 0.3536687, 0.043287277, 0
47, 2142371301, 0.08720766, -0.6764184, -0.034414724, -0.7305243, 0.6541801, 0.2812488, 0.024402618, 0
48, 2142387968, 0.08720132, -0.6763519, -0.034476727, -0.7305838, 0.58042043, 0.25020617, -0.01581955, 0
49, 2142404635, 0.087153405, -0.676288, -0.03452011, -0.73064643, 0.49733895, 0.27375934, 0.027536392, 0
50, 2142421302, 0.08708452, -0.6762379, -0.034522306, -0.7307009, 0.47333807, 0.16287172, 0.08238888, 0
51, 2142437969, 0.08702888, -0.67617583, -0.03457537, -0.73076254, 0.42497447, 0.113232724, 0.052181244, 0
52, 2142454636, 0.08700262, -0.67611665, -0.034664214, -0.7308162, 0.41413474, 0.28109536, 0.043984413, 0
53, 2142471303, 0.08699385, -0.67605853, -0.03470018, -0.7308692, 0.4968574, 0.33460382, 0.08156872, 0
54, 2142487970, 0.08700557, -0.6760122, -0.034705587, -0.7309105, 0.6351575, 0.22607754, 0.078517914, 0
55, 2142504637, 0.08700687, -0.6759492, -0.034709442, -0.7309684, 0.6419332, 0.15098652, 0.08344936, 0
56, 2142521304, 0.08701669, -0.6758845, -0.034704912, -0.7310273, 0.5102523, 0.24234504, 0.014357567, 0
57, 2142537971, 0.08705096, -0.67583287, -0.034669526, -0.73107266, 0.45769757, 0.26511988, 0.0030460358, 0
58, 2142554638, 0.08713431, -0.6757946, -0.034617845, -0.7311005, 0.4774116, 0.23607455, 0.014822006, 0
59, 2142571305, 0.08718923, -0.6757532, -0.034507155, -0.7311376, 0.5216391, 0.21055798, 0.06346226, 0
60, 2142587972, 0.08722839, -0.67571026, -0.03436956, -0.731179, 0.5827255, 0.28510395, 0.016555786, 0
61, 2142604639, 0.08730976, -0.67567253, -0.0342242, -0.73121095, 0.6001137, 0.30286485, 0.03796959, 0
62, 2142621306, 0.08737386, -0.67563695, -0.03404818, -0.7312444, 0.5716606, 0.21610965, 0.047876358, 0
63, 2142637973, 0.08750187, -0.6755963, -0.03396516, -0.7312706, 0.48593745, 0.15607849, 0.09262276, 0
64, 2142654640, 0.087642744, -0.6755488, -0.033924174, -0.7312994, 0.3617513, 0.20974813, 0.07862377, 0
65, 2142671307, 0.08770576, -0.67550856, -0.033823352, -0.7313338, 0.33454767, 0.26945648, 0.047956467, 0
66, 2142687974, 0.0878319, -0.6754681, -0.033775274, -0.7313581, 0.46427757, 0.2094037, 0.059122086, 0
67, 2142704641, 0.08794232, -0.67541856, -0.033754837, -0.73139167, 0.5438129, 0.16747428, 0.07988739, 0
68, 2142721308, 0.08800842, -0.6753613, -0.03372011, -0.73143816, 0.5504518, 0.26385817, 0.107073784, 0
69, 2142737975, 0.08814356, -0.6752992, -0.033715904, -0.7314793, 0.46987134, 0.33303916, 0.06529522, 0
70, 2142754642, 0.08829886, -0.6752453, -0.03368537, -0.7315117, 0.40786842, 0.2849471, 0.03683281, 0
71, 2142771309, 0.0884134, -0.67519975, -0.03357815, -0.731545, 0.38597053, 0.18886012, 0.057273865, 0
72, 2142787976, 0.08854169, -0.6751529, -0.033492994, -0.7315766, 0.43502057, 0.2489657, 0.038516045, 0
73, 2142804643, 0.08871327, -0.67509794, -0.033433195, -0.7316092, 0.4698375, 0.35333443, 0.023685455, 0
74, 2142821310, 0.08885324, -0.67504793, -0.03329453, -0.7316447, 0.53661317, 0.4100278, 0.019687653, 0
75, 2142837977, 0.0889886, -0.6749897, -0.033134032, -0.7316892, 0.5505042, 0.3981187, 0.083747864, 0
76, 2142854644, 0.089125946, -0.6749367, -0.03295363, -0.7317296, 0.51801825, 0.35232022, 0.07839966, 0
77, 2142871311, 0.0892627, -0.67489046, -0.032770675, -0.7317638, 0.4856038, 0.29941332, 0.035321236, 0
78, 2142887978, 0.08945517, -0.6748406, -0.032638475, -0.7317922, 0.46145344, 0.21963215, 0.034272194, 0
79, 2142904645, 0.08953371, -0.67479455, -0.032467797, -0.73183256, 0.37100238, 0.20554815, -0.0011129379, 0
80, 2142921312, 0.08962094, -0.6747428, -0.03235329, -0.7318747, 0.31070718, 0.28591162, 0.120485306, 0
81, 2142937979, 0.08969496, -0.6746973, -0.03220835, -0.7319141, 0.31105176, 0.29936224, 0.07429409, 0
82, 2142954646, 0.08975747, -0.6746404, -0.032034267, -0.7319665, 0.3233766, 0.17452674, 0.15045357, 0
83, 2142971313, 0.089838475, -0.6745844, -0.031922653, -0.73201305, 0.316665, 0.15775383, 0.03124237, 0
84, 2142987980, 0.08990109, -0.6745323, -0.031852853, -0.7320563, 0.3387012, 0.28726646, 0.11728573, 0
85, 2143004647, 0.089938045, -0.674471, -0.031771913, -0.7321117, 0.4572215, 0.3772345, 0.0033855438, 0
86, 2143021314, 0.08995529, -0.67441136, -0.03172232, -0.7321669, 0.57073873, 0.23597811, 0.009842873, 0
87, 2143037981, 0.08996779, -0.67435485, -0.031758178, -0.7322158, 0.6701819, 0.2690757, -0.007814407, 0
88, 2143054648, 0.08994089, -0.6742925, -0.03183041, -0.73227334, 0.6534816, 0.4467216, 0.121219635, 0
89, 2143071315, 0.089875996, -0.6742301, -0.031860054, -0.7323375, 0.5775193, 0.42307436, 0.023412704, 0
90, 2143087982, 0.0897872, -0.67417103, -0.0318746, -0.7324021, 0.4342655, 0.1446216, -0.012732506, 0
91, 2143104649, 0.08972646, -0.67412037, -0.031945746, -0.7324531, 0.30250326, 0.07529252, 0.04799843, 0
92, 2143121316, 0.089666024, -0.67406946, -0.032017864, -0.7325042, 0.22997315, 0.210591, 0.11159325, 0
93, 2143137983, 0.08965435, -0.6740106, -0.03212249, -0.73255527, 0.34949633, 0.24654463, 0.051247597, 0
94, 2143154650, 0.089579105, -0.6739455, -0.03217409, -0.73262197, 0.40933022, 0.2588917, 0.04465103, 0
95, 2143171317, 0.08952627, -0.6738852, -0.032249596, -0.7326807, 0.45303798, 0.3197107, 0.023444176, 0
96, 2143187984, 0.08946871, -0.67383647, -0.032309275, -0.73272985, 0.5051352, 0.38426223, 0.0466156, 0
97, 2143204651, 0.089396, -0.6737887, -0.032343898, -0.7327812, 0.5134653, 0.34141952, 0.07433891, 0
98, 2143221318, 0.08930577, -0.6737398, -0.03239221, -0.73283494, 0.57025373, 0.33277974, 0.0055561066, 0
99, 2143237985, 0.08918988, -0.673693, -0.032495283, -0.73288745, 0.53413486, 0.35698295, 0.014241219, 0
100, 2143254652, 0.08902127, -0.67363644, -0.032621514, -0.73295444, 0.48654056, 0.50046945, 0.02280426, 0
101, 2143271319, 0.08880697, -0.67358756, -0.03275788, -0.7330193, 0.34091038, 0.502123, 0.10852623, 0
102, 2143287986, 0.088544056, -0.6735361, -0.03291578, -0.7330913, 0.21348062, 0.2631337, 0.10916805, 0
103, 2143304653, 0.088222876, -0.673484, -0.03317009, -0.7331664, 0.15136565, 0.22502363, 0.12216377, 0
104, 2143321320, 0.08781363, -0.6734265, -0.033522423, -0.7332523, 0.20554154, 0.37351602, 0.11764526, 0
105, 2143337987, 0.08730185, -0.67336285, -0.03392228, -0.7333535, 0.37908298, 0.5060863, 0.03554821, 0
106, 2143354654, 0.0866824, -0.6732935, -0.034340266, -0.73347116, 0.49977854, 0.5072095, 0.022057533, 0
107, 2143371321, 0.08605114, -0.67322403, -0.03482552, -0.7335864, 0.6032029, 0.4213721, 0.01849842, 0
108, 2143387988, 0.085428976, -0.67316043, -0.03536349, -0.73369163, 0.627939, 0.38755223, 0.011527061, 0
109, 2143404655, 0.08479874, -0.67310673, -0.035849087, -0.7337905, 0.57932687, 0.29930076, -0.021282196, 0
110, 2143421322, 0.08416139, -0.6730482, -0.036304984, -0.7338951, 0.48664337, 0.17930774, -0.018575668, 0
111, 2143437989, 0.08356637, -0.6729992, -0.036761034, -0.7339856, 0.4058734, 0.14798564, 0.0907383, 0
112, 2143454656, 0.08301903, -0.67296, -0.037175875, -0.73406255, 0.3859229, 0.11512728, 0.083951, 0
113, 2143471323, 0.08252312, -0.6729066, -0.03755418, -0.73414814, 0.37142524, 0.10723576, 0.12284851, 0
114, 2143487990, 0.08203206, -0.6728544, -0.037897043, -0.7342334, 0.3408957, 0.10684092, 0.10435581, 0
115, 2143504657, 0.08161202, -0.6727844, -0.03829349, -0.73432386, 0.27647576, 0.1020587, 0.12605762, 0
116, 2143521324, 0.081202686, -0.6727233, -0.038697656, -0.734404, 0.31155103, 0.14965813, 0.067998886, 0
117, 2143537991, 0.080785185, -0.6726506, -0.03909359, -0.73449576, 0.34805086, 0.2676984, 0.015647888, 0
118, 2143554658, 0.08035362, -0.6725909, -0.039458696, -0.7345782, 0.48194745, 0.30908182, -0.01249218, 0
119, 2143571325, 0.07992768, -0.6725273, -0.039842423, -0.73466223, 0.61853963, 0.26902345, 0.018033028, 0
120, 2143587992, 0.079559445, -0.67246294, -0.04025084, -0.7347388, 0.68644583, 0.22815336, -0.014615059, 0
121, 2143604659, 0.079208046, -0.6724078, -0.040575504, -0.73480916, 0.633132, 0.29649273, -0.044620514, 0
122, 2143621326, 0.07895188, -0.67236525, -0.040809784, -0.73486274, 0.49318907, 0.22462603, 0.0837574, 0
123, 2143637993, 0.07875586, -0.672319, -0.040888727, -0.73492175, 0.3964977, 0.05346603, 0.1563425, 0
124, 2143654660, 0.078684926, -0.6722751, -0.040881872, -0.7349699, 0.26659566, -0.06231206, 0.11941242, 0
125, 2143671327, 0.078778654, -0.6722314, -0.040815204, -0.73500353, 0.1839378, -0.013594338, 0.122447014, 0
126, 2143687994, 0.078876376, -0.6722078, -0.040599402, -0.7350267, 0.29025978, 0.01618368, 0.080760956, 0
127, 2143704661, 0.07903294, -0.6721942, -0.040410314, -0.73503274, 0.51265293, 0.11843197, 0.092222214, 0
128, 2143721328, 0.079218656, -0.6721394, -0.040273443, -0.73507035, 0.49315798, 0.30551404, 0.15652084, 0
129, 2143737995, 0.07935277, -0.672078, -0.04014464, -0.7351188, 0.31657425, 0.30260134, 0.036387444, 0
130, 2143754662, 0.079504445, -0.67203474, -0.04005475, -0.735147, 0.26821786, 0.22046882, -0.048169136, 0
131, 2143771329, 0.07961826, -0.6720075, -0.040003184, -0.7351623, 0.4035765, 0.25208887, -0.010422707, 0
132, 2143787996, 0.07969503, -0.67197305, -0.04000628, -0.7351853, 0.5220301, 0.30108708, 0.051771164, 0
133, 2143804663, 0.07976788, -0.67192733, -0.040049337, -0.7352168, 0.5175308, 0.3476493, 0.004003525, 0
134, 2143821330, 0.07987414, -0.6718827, -0.040050883, -0.7352461, 0.50368774, 0.34514648, -0.04778099, 0
135, 2143837997, 0.07998233, -0.6718677, -0.039943404, -0.73525393, 0.51526576, 0.23213793, 0.019251823, 0
136, 2143854664, 0.08019042, -0.67184937, -0.039782524, -0.7352568, 0.48031667, 0.25199738, 0.13980961, 0
137, 2143871331, 0.08046487, -0.67182046, -0.03953173, -0.7352665, 0.39999187, 0.20747232, 0.17005539, 0
138, 2143887998, 0.08075599, -0.6717852, -0.039204933, -0.73528445, 0.25588214, 0.081775844, 0.071463585, 0
139, 2143904665, 0.08108808, -0.6717615, -0.03888525, -0.73528653, 0.14095524, 0.15747662, 0.12565327, 0
140, 2143921332, 0.08143853, -0.67172486, -0.03855344, -0.7352988, 0.15390946, 0.29077232, 0.08315563, 0
141, 2143937999, 0.08177556, -0.67168677, -0.038193677, -0.7353149, 0.2547298, 0.233343, 0.04882717, 0
142, 2143954666, 0.082076505, -0.67165715, -0.037904065, -0.73532337, 0.3637484, 0.26755378, 0.012280464, 0
143, 2143971333, 0.08234398, -0.6716165, -0.037663676, -0.7353431, 0.43835118, 0.45821095, 0.112799644, 0
144, 2143988000, 0.082552776, -0.67157805, -0.03741848, -0.7353673, 0.49855223, 0.4779444, 0.029156685, 0
145, 2144004667, 0.08275468, -0.67153347, -0.037245844, -0.7353942, 0.4639689, 0.3455706, -0.02407837, 0
146, 2144021334, 0.0829235, -0.6714882, -0.037103467, -0.7354236, 0.39606938, 0.25460187, 0.05887413, 0
147, 2144038001, 0.083090544, -0.6714397, -0.036949217, -0.73545676, 0.37687775, 0.25458977, 0.10958576, 0
148, 2144054668, 0.08325133, -0.6713986, -0.03676977, -0.735485, 0.3298053, 0.24330072, 0.06760979, 0
149, 2144071335, 0.083409786, -0.67135334, -0.03653703, -0.7355202, 0.30728054, 0.21668598, 0.06541443, 0
150, 2144088002, 0.083562, -0.6713178, -0.03629546, -0.7355472, 0.34345058, 0.23820609, 0.09469032, 0
151, 2144104669, 0.083760284, -0.67128783, -0.03609727, -0.7355617, 0.36658454, 0.35140985, 0.07234478, 0
152, 2144121336, 0.08394973, -0.67125124, -0.035873257, -0.73558456, 0.3953174, 0.37395138, 0.06764507, 0
153, 2144138003, 0.084122516, -0.6711962, -0.035681665, -0.7356242, 0.35966808, 0.17002966, 0.05377674, 0
154, 2144154670, 0.08425529, -0.6711522, -0.035613857, -0.73565245, 0.35495946, 0.18294463, 0.041833878, 0
155, 2144171337, 0.0842959, -0.6711058, -0.035592437, -0.73569113, 0.31628755, 0.38306057, 0.065509796, 0
156, 2144188004, 0.08427962, -0.6710584, -0.035566576, -0.73573744, 0.3151454, 0.4850924, 0.08339119, 0
157, 2144204671, 0.084220625, -0.6710104, -0.035531804, -0.7357898, 0.34399274, 0.3882753, 0.016420364, 0
158, 2144221338, 0.08418067, -0.6709603, -0.035549395, -0.7358392, 0.3831648, 0.24395941, 0.05322838, 0
159, 2144238005, 0.08413193, -0.6709173, -0.035619367, -0.7358806, 0.43056253, 0.30238673, 0.036878586, 0
160, 2144254672, 0.08406802, -0.670864, -0.03566256, -0.7359343, 0.4678605, 0.40803787, 0.067523, 0
161, 2144271339, 0.083992615, -0.67081475, -0.0356646, -0.7359878, 0.4560406, 0.29191333, 0.045550346, 0
162, 2144288006, 0.08389896, -0.67077655, -0.03569143, -0.7360319, 0.3826853, 0.24155156, 0.037434578, 0
163, 2144304673, 0.083833896, -0.67073566, -0.03573076, -0.7360747, 0.26358026, 0.35088104, 0.0740757, 0
164, 2144321340, 0.08381759, -0.6706847, -0.0357564, -0.7361218, 0.23986715, 0.33919823, 0.1251564, 0
165, 2144338007, 0.083764486, -0.67064905, -0.035759278, -0.7361601, 0.26053488, 0.20397462, 0.045030594, 0
166, 2144354674, 0.083714604, -0.67060757, -0.035803117, -0.7362015, 0.35355625, 0.11040104, 0.05737686, 0
167, 2144371341, 0.08362113, -0.6705677, -0.03586499, -0.73624545, 0.3877277, 0.18865454, 0.017285347, 0
168, 2144388008, 0.083536305, -0.6705323, -0.035903726, -0.7362853, 0.440576, 0.26991722, 0.06439686, 0
169, 2144404675, 0.08349987, -0.67050153, -0.035938725, -0.7363158, 0.42477626, 0.22743069, 0.11550331, 0
170, 2144421342, 0.08350167, -0.6704572, -0.035957646, -0.73635507, 0.38279417, 0.17152508, 0.021630287, 0
171, 2144438009, 0.08349432, -0.6704232, -0.035943955, -0.73638755, 0.33263785, 0.26367465, 0.014210701, 0
172, 2144454676, 0.0835332, -0.6703937, -0.035880644, -0.736413, 0.3692445, 0.3455975, 0.05354786, 0
173, 2144471343, 0.08361824, -0.67036444, -0.035805542, -0.73643374, 0.46522406, 0.21204233, 0.08596897, 0
174, 2144488010, 0.08366647, -0.6703386, -0.035728462, -0.73645556, 0.42383447, 0.17849024, 0.09219074, 0
175, 2144504677, 0.08371237, -0.67030686, -0.03564728, -0.736483, 0.2872806, 0.33120257, 0.05094433, 0
176, 2144521344, 0.08382748, -0.6702805, -0.035560593, -0.7364982, 0.21114388, 0.3089509, -0.003115654, 0
177, 2144538011, 0.083952636, -0.6702612, -0.035430327, -0.73650783, 0.33417943, 0.14628398, 0.001627922, 0
178, 2144554678, 0.08410464, -0.67024267, -0.035324894, -0.7365123, 0.4505997, 0.1808877, -0.022260666, 0
179, 2144571345, 0.08429103, -0.6702376, -0.035202987, -0.7365016, 0.5621336, 0.36583936, 0.07312584, 0
180, 2144588012, 0.084495686, -0.6702293, -0.034995858, -0.73649544, 0.5540124, 0.34814802, 0.19914722, 0
181, 2144604679, 0.084732845, -0.67020285, -0.034766927, -0.73650324, 0.32429183, 0.13085756, 0.19534206, 0
182, 2144621346, 0.08491632, -0.6701631, -0.034539994, -0.7365289, -0.0046576886, 0.043705724, 0.085801125, 0
183, 2144638013, 0.08511776, -0.67012167, -0.03439187, -0.7365503, -0.21785706, 0.13686715, 0.09706211, 0
184, 2144654680, 0.085285485, -0.67008394, -0.034247454, -0.73657197, -0.11599471, 0.16934812, 0.12753963, 0
185, 2144671347, 0.08542316, -0.6700331, -0.034162685, -0.7366062, 0.17996319, 0.21652521, 0.094447136, 0
186, 2144688014, 0.085531, -0.6699938, -0.03417182, -0.73662895, 0.46972778, 0.47935942, -0.0036668777, 0
187, 2144704681, 0.085599914, -0.66994727, -0.034213006, -0.7366615, 0.71878886, 0.64111763, -0.06562519, 0
188, 2144721348, 0.08565125, -0.66990215, -0.034244824, -0.736695, 0.8559653, 0.56120604, -0.08095932, 0
189, 2144738015, 0.085655525, -0.66986316, -0.034199715, -0.7367319, 0.7619485, 0.3557795, 0.005935669, 0
190, 2144754682, 0.08566408, -0.66984826, -0.034110043, -0.7367487, 0.5334689, 0.18229963, 0.0017681122, 0
191, 2144771349, 0.08571562, -0.6698393, -0.034052476, -0.7367535, 0.2630073, 0.36131132, 0.009712219, 0
192, 2144788016, 0.08576482, -0.66983944, -0.03390439, -0.73675454, 0.058238737, 0.4622106, 0.116456985, 0
193, 2144804683, 0.08587828, -0.6698268, -0.033770774, -0.736759, -0.020541329, 0.24495561, 0.22371197, 0
194, 2144821350, 0.085931346, -0.66978765, -0.033687137, -0.73679215, -0.057901673, 0.0314956, 0.28462505, 0
195, 2144838017, 0.085934535, -0.6697341, -0.03375721, -0.7368373, -0.13302036, 0.16051213, 0.20501995, 0
196, 2144854684, 0.08581047, -0.6696737, -0.033912815, -0.7368994, -0.14772965, 0.31972575, 0.13015747, 0
197, 2144871351, 0.08557543, -0.66959953, -0.034172196, -0.7369821, 0.10991372, 0.35273564, 0.04310131, 0
198, 2144888018, 0.08518169, -0.669518, -0.034560427, -0.73708373, 0.45594648, 0.43766955, -0.11608696, 0
199, 2144904685, 0.08475292, -0.6694526, -0.035029415, -0.7371706, 0.74922574, 0.7178721, -0.1479845, 0
200, 2144921352, 0.08432362, -0.66940945, -0.03541467, -0.73724055, 0.95301396, 0.75321126, -0.07278252, 0
201, 2144938019, 0.0839168, -0.6693941, -0.03570466, -0.737287, 0.9791288, 0.5031382, 0.026561737, 0
202, 2144954686, 0.083497226, -0.6693723, -0.035886683, -0.7373454, 0.6600986, 0.29790476, 0.1602478, 0
203, 2144971353, 0.083154276, -0.6693363, -0.036030684, -0.73740983, 0.1264183, 0.07677944, 0.13738728, 0
204, 2144988020, 0.08285658, -0.6693007, -0.03617356, -0.7374687, -0.42064905, -0.16080545, 0.24130344, 0
205, 2145004687, 0.08254521, -0.66926575, -0.036335465, -0.73752725, -0.53673744, -0.07568059, 0.25851536, 0
206, 2145021354, 0.08222213, -0.66920114, -0.03661828, -0.737608, -0.30198845, 0.21270734, 0.19416428, 0
207, 2145038021, 0.081833646, -0.6691168, -0.03698459, -0.7377096, 0.12927677, 0.35002795, -0.043437958, 0
208, 2145054688, 0.08140825, -0.6690329, -0.037458047, -0.73780876, 0.64061224, 0.4155626, -0.16080666, 0
209, 2145071355, 0.08097537, -0.6689797, -0.03793571, -0.73788023, 1.0164678, 0.48727357, -0.15033627, 0
210, 2145088022, 0.08055237, -0.6689448, -0.038310867, -0.73793894, 1.1366084, 0.46275157, -0.10639858, 0
211, 2145104689, 0.08020011, -0.6689279, -0.038569514, -0.737979, 0.92907643, 0.4104094, 0.12264061, 0
212, 2145121356, 0.07995502, -0.66888773, -0.038685538, -0.738036, 0.44328186, 0.20471463, 0.17816925, 0
213, 2145138023, 0.07979401, -0.6688396, -0.038706746, -0.7380959, -0.16719702, -0.17068186, 0.15288353, 0
214, 2145154690, 0.07971243, -0.6688067, -0.03871494, -0.73813415, -0.5585618, -0.3019617, 0.15805149, 0
215, 2145171357, 0.07971847, -0.66877276, -0.038750023, -0.7381623, -0.47863907, -0.13263153, 0.27501774, 0
216, 2145188024, 0.07970911, -0.66871613, -0.038757302, -0.73821414, -0.060442407, 0.09705335, 0.19489098, 0
217, 2145204691, 0.07972929, -0.6686327, -0.038823307, -0.7382841, 0.37527794, 0.29141933, -0.026133537, 0
218, 2145221358, 0.07971366, -0.668568, -0.038869057, -0.738342, 0.7933027, 0.47303355, -0.19915485, 0
219, 2145238025, 0.07972693, -0.6685308, -0.038857784, -0.73837477, 1.0535138, 0.6182708, -0.20754528, 0
220, 2145254692, 0.07984537, -0.66852, -0.038794193, -0.7383752, 1.0973214, 0.5369942, -0.08824158, 0
221, 2145271359, 0.07998229, -0.66853, -0.038562447, -0.7383635, 0.83493847, 0.353236, 0.1264677, 0
222, 2145288026, 0.08024393, -0.6685163, -0.038229585, -0.73836476, 0.34886333, 0.11642566, 0.18303204, 0
223, 2145304693, 0.08059764, -0.6685091, -0.03785024, -0.73835236, -0.1933806, -0.27042285, 0.106583595, 0
224, 2145321360, 0.08096591, -0.66850024, -0.037448823, -0.73834056, -0.53151804, -0.3315521, 0.27692127, 0
225, 2145338027, 0.08136256, -0.6684741, -0.03711798, -0.7383373, -0.48203206, -0.09567785, 0.29232693, 0
226, 2145354694, 0.08178607, -0.6684126, -0.036886647, -0.7383579, -0.19787125, 0.24414599, 0.20040607, 0
227, 2145371361, 0.08214575, -0.6683439, -0.036672425, -0.7383908, 0.14744413, 0.4225301, 0.091542244, 0
228, 2145388028, 0.08248511, -0.6682762, -0.036546893, -0.73842037, 0.5796519, 0.5175762, -0.070028305, 0
229, 2145404695, 0.08275916, -0.668212, -0.036443964, -0.738453, 0.8823601, 0.51229405, -0.16844559, 0
230, 2145421362, 0.08298707, -0.66816944, -0.036358465, -0.73847, 0.9133706, 0.4778346, -0.13756657, 0
231, 2145438029, 0.08317691, -0.6681482, -0.036239166, -0.73847383, 0.7872097, 0.38124117, -0.09433651, 0
232, 2145454696, 0.08341327, -0.6681416, -0.03613073, -0.73845845, 0.47997257, 0.34904638, -0.06842995, 0
233, 2145471363, 0.08364552, -0.66814405, -0.035965394, -0.738438, 0.18364578, 0.3706027, 0.06630421, 0
234, 2145488030, 0.083878934, -0.6681461, -0.03574235, -0.73842055, 0.064462975, 0.35393924, 0.1070776, 0
235, 2145504697, 0.08411211, -0.6681562, -0.035501532, -0.73839647, 0.068051375, 0.25058892, 0.109041214, 0
236, 2145521364, 0.084360465, -0.66812456, -0.035271894, -0.7384078, 0.072256126, 0.24498981, 0.15987301, 0
237, 2145538031, 0.084609225, -0.668105, -0.034996513, -0.73840994, 0.10387263, 0.12357115, 0.12464714, 0
238, 2145554698, 0.08490044, -0.66808957, -0.034752153, -0.73840207, 0.2532588, 0.06896375, 0.088581085, 0
239, 2145571365, 0.08517201, -0.66806555, -0.034524996, -0.7384033, 0.34506983, 0.29676133, 0.11522865, 0
240, 2145588032, 0.08541571, -0.66803396, -0.0343295, -0.73841286, 0.33425102, 0.44378135, 0.5193033, 0
241, 2145604699, 0.08565572, -0.66802126, -0.034268435, -0.7383992, 1.6224703, 0.48426363, 0.57987785, 0
242, 2145621366, 0.08585188, -0.66790426, -0.034266002, -0.73848253, 1.9806348, 0.75599796, -0.5339508, 0
243, 2145638033, 0.0859558, -0.66782445, -0.034049843, -0.7385526, 0.68758214, 1.1892709, 0.52040863, 0
244, 2145654700, 0.08618051, -0.66786075, -0.033813197, -0.7385044, 1.4701288, 0.21106027, -0.3350382, 0
245, 2145671367, 0.0862975, -0.66777575, -0.03379124, -0.7385686, 1.2292162, -0.34303388, 0.32191372, 0
246, 2145688034, 0.086411744, -0.6677447, -0.03388814, -0.73857874, 0.70993495, 0.63877004, 0.22632122, 0
247, 2145704701, 0.08656274, -0.6676071, -0.03397385, -0.7386817, 0.513429, 0.44145167, -0.94152164, 0
248, 2145721368, 0.0864663, -0.66743755, -0.034294765, -0.73883134, -0.054733638, 0.00874528, 1.4240437, 0
249, 2145738035, 0.086217426, -0.667279, -0.034761496, -0.73898196, -0.24812044, 0.09804295, -0.5601692, 0
250, 2145754702, 0.08576701, -0.6673092, -0.035494506, -0.7389722, -1.1796829, 0.2797498, 0.032294273, 0
251, 2145771369, 0.08539571, -0.66733134, -0.03660534, -0.7389409, 0.01831366, 0.69766945, 0.16518116, 0
252, 2145788036, 0.08478208, -0.66719663, -0.037555825, -0.7390856, 0.27103245, -0.05744294, 0.08111763, 0
253, 2145804703, 0.084215276, -0.66710055, -0.038537532, -0.7391866, -0.20654787, 0.41059542, -0.04416275, 0
254, 2145821370, 0.08378209, -0.6670616, -0.039430894, -0.7392238, 0.124599546, 0.32297516, -0.52373123, 0
255, 2145838037, 0.083493166, -0.6669889, -0.04007029, -0.7392877, -0.0070123696, 0.27961606, 0.16727543, 0
256, 2145854704, 0.083357364, -0.6669509, -0.040245272, -0.73932767, -0.17207105, 0.07121643, 0.11990833, 0
257, 2145871371, 0.08344297, -0.6669159, -0.040058885, -0.7393599, -0.2224518, -0.3463997, -0.350358, 0
258, 2145888038, 0.08377473, -0.6669531, -0.039843004, -0.7393004, -0.20930517, -0.36355138, -0.29846287, 0
259, 2145904705, 0.084346175, -0.6670072, -0.039237175, -0.73921907, -0.08377498, 0.5382125, 0.2077961, 0
260, 2145921372, 0.08537039, -0.6670452, -0.03801828, -0.73913074, -0.029298218, 0.09731872, -0.16341591, 0
261, 2145938039, 0.0866752, -0.6671632, -0.036656667, -0.73894113, 0.30777654, -1.1177882, 0.02766323, 0
262, 2145954706, 0.08800877, -0.66729486, -0.035285264, -0.7387314, 0.43806383, 0.11909077, 0.14028549, 0
263, 2145971373, 0.089307114, -0.6674013, -0.033825196, -0.73854774, 0.47052985, 0.74957776, 0.40331554, 0
264, 2145988040, 0.090453, -0.6674652, -0.032511182, -0.7384097, 0.66715765, 0.4370755, 0.22463799, 0
265, 2146004707, 0.09136182, -0.6674844, -0.031624895, -0.7383188, 0.54529524, 0.5536452, 0.10880947, 0
266, 2146021374, 0.09243365, -0.6675228, -0.030990921, -0.7381776, 0.9551162, 0.406791, -0.052710533, 0
267, 2146038041, 0.093542196, -0.6674305, -0.030158084, -0.7381561, 0.3786424, 0.62435573, 0.6735134, 0
268, 2146054708, 0.09426749, -0.6669872, -0.02975604, -0.7384804, -0.64354295, -1.5895978, -0.89328194, 0
269, 2146071375, 0.09407698, -0.6669021, -0.030799765, -0.73853886, -2.8688982, -0.6370133, -0.1037817, 0
270, 2146088042, 0.09358533, -0.66712475, -0.031973507, -0.73835045, -1.2952148, 3.2209246, -0.33450794, 0
271, 2146104709, 0.093070656, -0.66707426, -0.03274503, -0.7384272, -0.46868026, 2.2866118, 0.20656109, 0
272, 2146121376, 0.092243955, -0.667039, -0.0337258, -0.7385188, -0.17487212, -0.038314704, 0.84093475, 0
273, 2146138043, 0.09107686, -0.6668958, -0.035306558, -0.738719, 0.16342849, 0.27742103, -0.59064865, 0
274, 2146154710, 0.089782506, -0.6667506, -0.037004806, -0.7389253, -0.9547575, 0.79516155, 0.02848816, 0
275, 2146171377, 0.088338174, -0.6667651, -0.03836333, -0.7390171, -0.45172414, 0.71939313, -0.16930199, 0
276, 2146188044, 0.086933985, -0.6667426, -0.039464414, -0.7391459, -0.44653556, 0.050695084, -0.04427719, 0
277, 2146204711, 0.08565687, -0.66674787, -0.04068131, -0.7392244, -0.24652746, -0.33281952, -0.15828705, 0
278, 2146221378, 0.08444619, -0.6667699, -0.041690566, -0.7392874, -0.1464105, 0.7506847, -0.29259777, 0
279, 2146238045, 0.08343558, -0.666822, -0.042185944, -0.73932695, 0.0017308354, 0.44498983, 0.26641273, 0
280, 2146254712, 0.082484536, -0.6668303, -0.042677563, -0.739398, 0.44739226, -0.5775585, -0.0032100677, 0
281, 2146271379, 0.08135644, -0.6667549, -0.04353733, -0.73954093, -0.14247957, 0.15136102, 0.037202835, 0
282, 2146288046, 0.08023199, -0.6667323, -0.0445176, -0.73962593, -0.4988856, 0.9444395, -0.14938927, 0
283, 2146304713, 0.07911144, -0.66674095, -0.04522585, -0.7396957, -0.22090793, 0.36221555, 0.09638977, 0
284, 2146321380, 0.07798901, -0.66674846, -0.0457685, -0.73977476, 0.1683527, -0.53283256, 0.3973322, 0
285, 2146338047, 0.077132925, -0.6667031, -0.04660784, -0.73985296, 0.5285563, -0.5620381, 0.523448, 0
286, 2146354714, 0.076403074, -0.6665961, -0.047365658, -0.73997706, 0.48101017, 0.35066372, 0.3238268, 0
287, 2146371381, 0.075910285, -0.66653526, -0.04766809, -0.7400632, 0.64443576, 0.33219573, 0.2673235, 0
288, 2146388048, 0.075820655, -0.66648406, -0.04769635, -0.7401164, 1.0419364, -0.501324, 0.3210373, 0
289, 2146404715, 0.07584983, -0.66641945, -0.047474276, -0.74018586, 1.1693652, -0.53656393, 0.27053833, 0
290, 2146421382, 0.07623905, -0.6663137, -0.047133625, -0.740263, 1.2158709, 0.2756829, 0.06014824, 0
291, 2146438049, 0.07669628, -0.6661827, -0.04645972, -0.7403762, 2.5985389, 1.0440675, 0.32473946, 0
292, 2146454716, 0.07733627, -0.6659605, -0.045768205, -0.7405526, 3.7187483, 0.7358456, 0.933836, 0
293, 2146471383, 0.07803412, -0.6658335, -0.045142274, -0.74063194, -0.5225401, -0.30725768, -0.507576, 0
294, 2146488050, 0.07868993, -0.6657804, -0.044674776, -0.74063873, 0.16125968, 0.09483828, 0.02148056, 0
295, 2146504717, 0.07923089, -0.6656531, -0.044425298, -0.74071044, 0.6359395, 0.47354177, 0.36054325, 0
296, 2146521384, 0.07953675, -0.66555774, -0.04415276, -0.74077964, -0.37838367, 0.81563497, -0.41802883, 0
297, 2146538051, 0.079778776, -0.66543466, -0.044184998, -0.7408623, 0.33954316, 0.8371366, 0.20014858, 0
298, 2146554718, 0.0799038, -0.6653248, -0.04439003, -0.74093515, 0.1977528, 0.4147256, -0.06713009, 0
299, 2146571385, 0.07987338, -0.66526324, -0.0445762, -0.74098253, 0.19873945, 0.37514824, 0.0414114, 0
300, 2146588052, 0.07977583, -0.6651958, -0.04484439, -0.74103737, 0.30111527, 0.31465617, 0.048773766, 0
301, 2146604719, 0.079634175, -0.66513187, -0.045233313, -0.7410864, 0.2666411, 0.14966461, -0.13730621, 0
302, 2146621386, 0.07944444, -0.66507673, -0.045679715, -0.7411289, 0.21025054, 0.5630005, 0.117715836, 0
303, 2146638053, 0.079230025, -0.6650218, -0.046021607, -0.74117994, 0.12857445, 0.6075601, -0.06946087, 0
304, 2146654720, 0.07897633, -0.66498524, -0.046332583, -0.7412205, 0.23326595, 0.41669938, 0.0072813034, 0
305, 2146671387, 0.0787479, -0.6649357, -0.046688266, -0.7412669, 0.19394107, 0.3640611, 0.08439827, 0
306, 2146688054, 0.078512385, -0.66489047, -0.047039595, -0.7413102, 0.17820439, 0.3826162, 0.084804535, 0
307, 2146704721, 0.07826798, -0.66485703, -0.04731786, -0.7413483, 0.18613882, 0.42397848, 0.08598709, 0
308, 2146721388, 0.078011274, -0.6648129, -0.047563344, -0.7413993, 0.21546529, 0.23982076, 0.013896942, 0
309, 2146738055, 0.07778446, -0.6647813, -0.047859628, -0.7414325, 0.2624978, 0.21769436, 0.015047073, 0
310, 2146754722, 0.07757802, -0.66476226, -0.04812662, -0.74145395, 0.23749287, 0.38543713, 0.14915657, 0
311, 2146771389, 0.077372715, -0.6647663, -0.048278775, -0.7414618, 0.29767907, 0.41724414, 0.4287672, 0
312, 2146788056, 0.07720351, -0.6647957, -0.048355624, -0.74144804, 0.42812765, 0.27911562, 0.33671665, 0
313, 2146804723, 0.07706025, -0.6648205, -0.048461776, -0.7414337, 0.15736668, 0.20389763, -0.094239235, 0
314, 2146821390, 0.076952934, -0.6648232, -0.04854633, -0.74143696, 0.011148568, 0.36972693, -0.4185524, 0
315, 2146838057, 0.076909736, -0.66482544, -0.0485353, -0.7414401, 0.082059935, 0.43878567, 0.09660244, 0
316, 2146854724, 0.076908335, -0.6648149, -0.048467766, -0.7414542, 0.5168897, 0.122885354, 0.08874893, 0
317, 2146871391, 0.07690233, -0.664795, -0.048448354, -0.74147385, 0.2385637, 0.046457615, 0.007820129, 0
318, 2146888058, 0.07687107, -0.6647779, -0.04845314, -0.74149215, 0.2436553, 0.48575568, 0.028227806, 0
319, 2146904725, 0.07679191, -0.6647356, -0.04837387, -0.7415434, 0.4149356, 0.5512309, 0.1390419, 0
320, 2146921392, 0.07674922, -0.66473407, -0.048357207, -0.7415504, 0.54632545, 0.3975788, 0.04220009, 0
321, 2146938059, 0.07668571, -0.6647028, -0.0483658, -0.74158436, 0.56314903, 0.23316567, 0.40567017, 0
322, 2146954726, 0.07657638, -0.6646825, -0.048401125, -0.74161166, 0.3838714, 0.41795817, -0.013466835, 0
323, 2146971393, 0.07647912, -0.6646611, -0.048427623, -0.7416391, 0.44917372, 0.60177946, 0.21336937, 0
324, 2146988060, 0.0763538, -0.6646406, -0.0484595, -0.74166834, 0.5428714, 0.12690942, 0.04224491, 0
325, 2147004727, 0.07618925, -0.66460156, -0.048551504, -0.7417142, 0.4996727, 0.32716116, 0.13290596, 0
326, 2147021394, 0.07606006, -0.6645632, -0.048656475, -0.74175507, 0.3539055, 0.5169907, 0.06605911, 0
327, 2147038061, 0.075830236, -0.664539, -0.048664268, -0.7417997, 0.35666376, 0.36069682, 0.014136314, 0
328, 2147054728, 0.07568072, -0.66450995, -0.048761673, -0.7418344, 0.34450614, 0.2228493, 0.06926155, 0
329, 2147071395, 0.07553825, -0.6644787, -0.04892861, -0.741866, 0.28945783, 0.19815765, 0.044143677, 0
330, 2147088062, 0.075362846, -0.6644534, -0.049115025, -0.7418943, 0.25113884, 0.3435757, -0.03646469, 0
331, 2147104729, 0.07520263, -0.6644373, -0.049293842, -0.741913, 0.14798662, 0.37286195, -0.0055236816, 0
332, 2147121396, 0.07501961, -0.6644345, -0.049437035, -0.74192446, 0.13147874, 0.19149461, 0.021850586, 0
333, 2147138063, 0.0748291, -0.6644038, -0.049644925, -0.74195737, 0.0797258, 0.1787813, 0.06042862, 0
334, 2147154730, 0.07465416, -0.6643706, -0.049896106, -0.7419878, -0.07445622, 0.32793123, 0.10267544, 0
335, 2147171397, 0.07447726, -0.6643494, -0.05010904, -0.74201024, -0.14568304, 0.2767173, 0.048425674, 0
336, 2147188064, 0.07434239, -0.6643216, -0.050310977, -0.74203503, -0.1779817, 0.14660516, 0.06482315, 0
337, 2147204731, 0.074221835, -0.66429734, -0.050487135, -0.7420569, -0.13140036, 0.03408947, 0.035992622, 0
338, 2147221398, 0.0741052, -0.6642845, -0.050657894, -0.7420684, -0.101412095, 0.13161811, 0.051480293, 0
339, 2147238065, 0.07398774, -0.6642659, -0.050750162, -0.7420905, -0.078224674, 0.35740298, 0.080451965, 0
340, 2147254732, 0.07390149, -0.6642473, -0.05081602, -0.74211115, 0.12839583, 0.3213467, 0.013075829, 0
341, 2147271399, 0.07380226, -0.6642322, -0.05091127, -0.7421281, 0.24278942, 0.3065126, -0.022396088, 0
342, 2147288066, 0.073682785, -0.66422224, -0.05101056, -0.74214196, 0.31254435, 0.4845215, 0.011070251, 0
343, 2147304733, 0.07357834, -0.6642171, -0.051076006, -0.7421525, 0.37864155, 0.4838795, 0.10211086, 0
344, 2147321400, 0.07346304, -0.66420424, -0.051086813, -0.7421746, 0.40834853, 0.21775985, 0.10579014, 0
345, 2147338067, 0.07339851, -0.66417533, -0.05116549, -0.74220145, 0.37731922, 0.16579247, 0.082362175, 0
346, 2147354734, 0.073325045, -0.6641567, -0.05127567, -0.7422178, 0.26663598, 0.41330782, 0.16507244, 0
347, 2147371401, 0.07323769, -0.66413385, -0.05137184, -0.7422402, 0.37407035, 0.4483474, 0.03652191, 0
348, 2147388068, 0.0730758, -0.66413176, -0.05140194, -0.74225605, 0.38650182, 0.56654096, 0.048249245, 0
349, 2147404735, 0.0730163, -0.6641223, -0.051450945, -0.74226695, 0.5483455, 0.44414482, 0.16729164, 0
350, 2147421402, 0.073053956, -0.6640834, -0.05147248, -0.7422965, 0.57079333, -0.13787118, 0.2448101, 0
351, 2147438069, 0.0731524, -0.6640314, -0.051483463, -0.74233264, 0.4720122, -0.27396172, 0.15214825, 0
352, 2147454736, 0.073250435, -0.66398734, -0.051385403, -0.7423691, 0.14840797, 0.2707638, 0.015634537, 0
353, 2147471403, 0.07348408, -0.6639706, -0.051194135, -0.7423742, 0.09278805, 0.45687288, -0.09412956, 0
354, 2147488070, 0.07367352, -0.6639487, -0.05096374, -0.7423908, 0.028278356, 0.27410114, -0.02685833, 0
355, 2147504737, 0.0739371, -0.66392523, -0.05075239, -0.74240017, -0.031407993, 0.20121452, 0.030584335, 0
356, 2147521404, 0.07433152, -0.6639299, -0.050504904, -0.74237365, 0.07351578, 0.09302688, 0.04753685, 0
357, 2147538071, 0.07468988, -0.6639232, -0.050173063, -0.742366, 0.008737841, 0.22936855, 0.13720131, 0
358, 2147554738, 0.074990265, -0.66391855, -0.04987571, -0.7423597, -0.006930867, 0.39639917, 0.055491447, 0
359, 2147571405, 0.07519896, -0.6639, -0.049682315, -0.74236834, -0.033497605, 0.42314473, -0.00137043, 0
360, 2147588072, 0.075271994, -0.66387033, -0.049642053, -0.74239016, -0.14786546, 0.48185402, 0.065093994, 0
361, 2147604739, 0.07528493, -0.6638217, -0.049748674, -0.74242514, -0.23112875, 0.61753833, -0.012929916, 0
362, 2147621406, 0.07518743, -0.6637877, -0.04981779, -0.7424607, -0.2867597, 0.4400399, 0.04194832, 0
363, 2147638073, 0.07502332, -0.6637664, -0.049982596, -0.74248534, -0.22198907, 0.21314804, 8.6402893E-4, 0
364, 2147654740, 0.07470316, -0.66371644, -0.05026212, -0.7425435, -0.25009072, 0.25236592, 0.0051145554, 0
365, 2147671407, 0.07423515, -0.66365856, -0.050685756, -0.74261343, -0.44363052, 0.6240666, 0.07925224, 0
366, 2147688074, 0.07365, -0.6636051, -0.051106162, -0.7426906, -0.43487984, 0.7516273, -0.09554386, 0
367, 2147704741, 0.07303485, -0.6635847, -0.051566128, -0.7427377, -0.11661275, 0.4832073, -0.34327888, 0
368, 2147721408, 0.07242194, -0.6635844, -0.052073862, -0.74276257, 0.09144282, 0.17206563, 0.69066143, 0
369, 2147738075, 0.07176292, -0.6635421, -0.052369647, -0.7428436, -0.06975935, 1.0582379, 0.1053648, 0
370, 2147754742, 0.07123907, -0.66351384, -0.052693352, -0.74289644, 0.37362543, -0.66577566, -0.36407757, 0
371, 2147771409, 0.07075574, -0.6634554, -0.053252082, -0.742955, 0.29495233, -0.46411252, 0.4362383, 0
372, 2147788076, 0.07036308, -0.6634178, -0.05359921, -0.7430008, 0.32968754, 0.4146947, -0.33937645, 0
373, 2147804743, 0.070171475, -0.66341084, -0.053791624, -0.7430112, 0.34292206, 0.06606467, 0.27781296, 0
374, 2147821410, 0.06999107, -0.66344, -0.053800564, -0.7430016, 0.8102238, -0.14804095, 0.057367325, 0
375, 2147838077, 0.069955766, -0.6633927, -0.053945668, -0.7430366, 0.64446455, 0.10702052, 0.28043175, 0
376, 2147854744, 0.07013406, -0.6633348, -0.05403768, -0.7430649, 0.61704093, 0.48287398, -0.040934563, 0
377, 2147871411, 0.070335865, -0.6632915, -0.053685863, -0.74310976, 0.32457507, 0.52118236, 0.14949322, 0
378, 2147888078, 0.07064231, -0.6632815, -0.05327877, -0.74311894, 0.18458979, -0.21363066, 0.07877731, 0
379, 2147904745, 0.070973955, -0.66329515, -0.053109705, -0.74308735, 0.42716745, -0.18685454, -0.025546074, 0
380, 2147921412, 0.07126249, -0.66325295, -0.052965775, -0.74310774, 0.033601206, 0.71155953, 0.17496872, 0
381, 2147938079, 0.07147218, -0.66323084, -0.052784383, -0.7431202, -0.12386722, 0.7845902, 0.012434006, 0
382, 2147954746, 0.071461566, -0.6632371, -0.052703246, -0.7431213, 0.05497582, 0.5434104, 0.031145096, 0
383, 2147971413, 0.07136972, -0.66323155, -0.052905433, -0.7431208, 0.30367687, 0.6485524, 0.0439291, 0
384, 2147988080, 0.07116944, -0.66316295, -0.053303603, -0.74317265, 0.32821992, 0.7919441, 0.08570099, 0
385, 2148004747, 0.07079363, -0.66309834, -0.053586416, -0.7432459, 0.06297676, 0.7644212, 0.29903698, 0
386, 2148021414, 0.070406035, -0.66306, -0.053747635, -0.74330527, 0.21474853, 0.25532275, -0.032253265, 0
387, 2148038081, 0.07000813, -0.66300046, -0.054062508, -0.74337316, 0.16663633, -0.026395204, 0.025444984, 0
388, 2148054748, 0.069517344, -0.6629715, -0.05445273, -0.74341655, 0.001766842, 0.57159764, 0.07172966, 0
389, 2148071415, 0.06907123, -0.66292435, -0.05472086, -0.7434806, 0.002167936, 0.70706636, 0.06743145, 0
390, 2148088082, 0.06861945, -0.6628726, -0.054885857, -0.74355626, -0.028065495, 0.11299681, 0.12448883, 0
391, 2148104749, 0.06815965, -0.66282135, -0.05515624, -0.7436242, -0.002318437, 0.07628866, 0.026880264, 0
392, 2148121416, 0.067713745, -0.6627349, -0.055476185, -0.74371827, -0.17578804, 0.27117732, -0.08650875, 0
393, 2148138083, 0.06731174, -0.6626825, -0.055799335, -0.7437774, -0.27008697, 0.031507168, 0.0143146515, 0
394, 2148154750, 0.066813864, -0.66265225, -0.0561117, -0.74382573, -0.11896396, 0.12855834, -0.20771694, 0
395, 2148171417, 0.06636925, -0.6626213, -0.056451038, -0.7438675, -0.23358044, 0.44299906, 0.08769035, 0
396, 2148188084, 0.06597526, -0.66259646, -0.05674952, -0.7439019, 0.05282364, -0.005399626, 0.025650978, 0
397, 2148204751, 0.0655493, -0.66256326, -0.0570721, -0.74394447, 0.096890725, -0.004986574, 0.16094875, 0
398, 2148221418, 0.065176584, -0.6625109, -0.05739496, -0.7439989, 0.04622714, 0.17880875, 0.13122368, 0
399, 2148238085, 0.06492971, -0.66246194, -0.05762425, -0.7440463, -0.1188481, 0.2131704, -0.031101227, 0
400, 2148254752, 0.064785436, -0.6624492, -0.057782914, -0.7440579, -0.031012898, 0.0020812969, -0.27379322, 0
401, 2148271419, 0.06476563, -0.66246325, -0.057933956, -0.7440353, -0.06964621, 0.10808952, 0.006155014, 0
402, 2148288086, 0.06483261, -0.6624866, -0.05793561, -0.74400866, -0.02921996, 0.12008239, 0.08616161, 0
403, 2148304753, 0.064957626, -0.66248345, -0.057793755, -0.74401164, -0.076825924, 0.0904315, 0.2251234, 0
404, 2148321420, 0.065141305, -0.6625011, -0.057554815, -0.74399847, 0.11139482, -0.044193372, -0.2293415, 0
405, 2148338087, 0.06526931, -0.6625305, -0.057304148, -0.7439802, 0.121698335, 0.053254925, 0.061077118, 0
406, 2148354754, 0.06541995, -0.66255194, -0.057158977, -0.7439592, 0.16463493, 0.53225386, -9.5558167E-4, 0
407, 2148371421, 0.065607324, -0.6625658, -0.05700668, -0.743942, 0.18123056, 0.6061173, 0.1597805, 0
408, 2148388088, 0.06573389, -0.66257846, -0.056818515, -0.743934, 0.2362258, 0.4318273, 0.22056198, 0
409, 2148404755, 0.06585824, -0.6625682, -0.056728788, -0.74393886, 0.3120993, 0.29911113, 0.21471882, 0
410, 2148421422, 0.06584787, -0.6625629, -0.056621686, -0.7439526, 0.33787817, 0.36073482, 0.16513252, 0
411, 2148438089, 0.06594969, -0.6625463, -0.056609616, -0.74395937, 0.34051254, 0.49981096, 0.17910194, 0
412, 2148454756, 0.06605396, -0.6625151, -0.0565785, -0.7439802, 0.47789383, 0.43094853, 0.19099426, 0
413, 2148471423, 0.06612923, -0.6624713, -0.056557037, -0.74401414, 0.5107435, 0.31314197, 0.1706562, 0
414, 2148488090, 0.06617278, -0.66241634, -0.05658244, -0.74405736, 0.47760293, 0.4101946, 0.13533783, 0
415, 2148504757, 0.06621335, -0.66235244, -0.056602076, -0.7441091, 0.3981644, 0.5755331, 0.088121414, 0
416, 2148521424, 0.06624234, -0.66229814, -0.056560375, -0.7441581, 0.33747765, 0.4666129, 0.13822746, 0
417, 2148538091, 0.06622811, -0.6622567, -0.056532327, -0.7441984, 0.34809458, 0.30528387, 0.06914806, 0
418, 2148554758, 0.06617597, -0.6622147, -0.0565122, -0.74424183, 0.29772112, 0.3637072, 0.030836105, 0
419, 2148571425, 0.06611737, -0.66216415, -0.056504574, -0.7442926, 0.19904605, 0.38788107, 0.039996147, 0
420, 2148588092, 0.06607029, -0.6621126, -0.056499016, -0.744343, 0.12711953, 0.33930036, 0.085757256, 0
421, 2148604759, 0.0659326, -0.6620776, -0.056417085, -0.7443927, 0.07991489, 0.21482494, -0.039263725, 0
422, 2148621426, 0.06585507, -0.66205543, -0.05639804, -0.74442065, 0.12394359, 0.20984878, -0.052622795, 0
423, 2148638093, 0.06585275, -0.6620307, -0.056446932, -0.7444392, 0.10861754, 0.34743598, 0.12921715, 0
424, 2148654760, 0.06581754, -0.6620015, -0.056462176, -0.74446714, 0.15815878, 0.21682818, 0.034258842, 0
425, 2148671427, 0.06579236, -0.6619634, -0.056502834, -0.74450004, 0.0720129, 0.4037246, 0.039964676, 0
426, 2148688094, 0.065776065, -0.6619361, -0.056471273, -0.7445283, 0.0026286102, 0.3311954, 0.060370445, 0
427, 2148704761, 0.06576707, -0.66190994, -0.0564916, -0.7445507, 0.10312357, 0.11402703, 0.017578125, 0
428, 2148721428, 0.06573254, -0.6618753, -0.056543194, -0.7445805, 0.08892123, 0.2484009, 0.08240223, 0
429, 2148738095, 0.06573163, -0.6618409, -0.056590416, -0.7446077, 0.094925314, 0.31222603, 0.09201336, 0
430, 2148754762, 0.06576271, -0.66182125, -0.056622267, -0.74461997, 0.08976798, 0.3055991, 0.07675934, 0
431, 2148771429, 0.06571172, -0.66180146, -0.056598283, -0.7446438, 0.14333554, 0.24360605, -0.013380051, 0
432, 2148788096, 0.065658756, -0.66177857, -0.056617573, -0.7446675, 0.13725387, 0.33923176, 0.023303032, 0
433, 2148804763, 0.06565837, -0.661761, -0.056653652, -0.74468035, 0.13081901, 0.4119376, 0.10667038, 0
434, 2148821430, 0.065637246, -0.66175395, -0.056632504, -0.74469, 0.19834065, 0.2509532, 0.07496929, 0
435, 2148838097, 0.06566256, -0.6617186, -0.05666427, -0.7447168, 0.23260322, 0.22769645, 0.10263729, 0
436, 2148854764, 0.06567638, -0.66169953, -0.056679375, -0.7447314, 0.22733589, 0.34896016, 0.06881237, 0
437, 2148871431, 0.06569545, -0.6616699, -0.0566673, -0.74475694, 0.23782158, 0.406789, 0.062278748, 0
438, 2148888098, 0.06572445, -0.6616458, -0.056650784, -0.7447771, 0.1932121, 0.33684877, 0.091524124, 0
439, 2148904765, 0.06581359, -0.66161937, -0.056703985, -0.7447887, 0.17737265, 0.32796225, 0.09689808, 0
440, 2148921432, 0.06584057, -0.6616013, -0.056733746, -0.7448001, 0.2073453, 0.39323458, 0.041054726, 0
441, 2148938099, 0.065842, -0.6615831, -0.05671378, -0.7448176, 0.22011857, 0.4129993, 0.052814484, 0
442, 2148954766, 0.065821886, -0.66156024, -0.056684077, -0.744842, 0.25561792, 0.3619907, 0.06702232, 0
443, 2148971433, 0.065775126, -0.6615346, -0.056679998, -0.74486923, 0.27522328, 0.30121225, 0.051852226, 0
444, 2148988100, 0.065780014, -0.66150975, -0.056762125, -0.7448848, 0.26530597, 0.3475185, 0.07234478, 0
445, 2149004767, 0.06568129, -0.6614958, -0.05674739, -0.7449067, 0.18332458, 0.4204758, 0.08620739, 0
446, 2149021434, 0.06572053, -0.6614696, -0.05685528, -0.74491847, 0.16312908, 0.39375144, 0.07780361, 0
447, 2149038101, 0.065578744, -0.66146076, -0.056812964, -0.744942, 0.15263455, 0.33020094, 0.06743145, 0
448, 2149054768, 0.06543085, -0.66145456, -0.05678776, -0.74496233, 0.115983866, 0.29529178, 0.076438904, 0
449, 2149071435, 0.06536469, -0.6614421, -0.056840133, -0.74497527, 0.11244801, 0.29115748, 0.05248642, 0
450, 2149088102, 0.06527649, -0.66141444, -0.05689054, -0.74500364, 0.11143114, 0.25200266, 0.037610054, 0
451, 2149104769, 0.06516199, -0.6613982, -0.056921255, -0.7450259, 0.057347152, 0.27229455, 0.094641685, 0
452, 2149121436, 0.065085396, -0.661374, -0.056959927, -0.74505097, 0.07087069, 0.27980083, 0.05448532, 0
453, 2149138103, 0.06501575, -0.6613391, -0.05700202, -0.74508494, 0.071200274, 0.2842161, 0.030444145, 0
454, 2149154770, 0.06494762, -0.6613149, -0.057048433, -0.7451088, 0.018013448, 0.35075027, 0.03792286, 0
455, 2149171437, 0.06487974, -0.6613017, -0.05706353, -0.7451253, 0.07241662, 0.31811565, 0.02149105, 0
456, 2149188104, 0.064885885, -0.66128165, -0.05710433, -0.74513936, 0.08420555, 0.19182524, 0.06570721, 0
457, 2149204771, 0.064850435, -0.6612745, -0.057130087, -0.7451468, 0.1394814, 0.24642618, 0.059536934, 0
458, 2149221438, 0.064803824, -0.66126364, -0.057156336, -0.74515843, 0.12969442, 0.34087837, 0.029305458, 0
459, 2149238105, 0.06473701, -0.66125804, -0.05713536, -0.7451709, 0.12619393, 0.35776287, 0.07819939, 0
460, 2149254772, 0.06473006, -0.6612516, -0.057143234, -0.74517673, 0.17760292, 0.2936587, 0.08382797, 0
461, 2149271439, 0.06473677, -0.6612329, -0.057155147, -0.7451917, 0.16875413, 0.27038854, 0.11476135, 0
462, 2149288106, 0.06468015, -0.6612241, -0.057109628, -0.74520785, 0.15912108, 0.36089066, 0.068510056, 0
463, 2149304773, 0.06467125, -0.6612085, -0.057085343, -0.7452244, 0.13465837, 0.3525926, 0.05391884, 0
464, 2149321440, 0.06470069, -0.6612007, -0.05705088, -0.74523133, 0.18435289, 0.2306581, 0.08873367, 0
465, 2149338107, 0.06472291, -0.66118807, -0.05700758, -0.7452438, 0.18604173, 0.24751858, 0.089941025, 0
466, 2149354774, 0.06474775, -0.6611667, -0.056953624, -0.74526495, 0.1680922, 0.34092727, 0.087501526, 0
467, 2149371441, 0.0648087, -0.6611538, -0.056907997, -0.74527454, 0.15244663, 0.3428868, 0.08969116, 0
468, 2149388108, 0.06483932, -0.66113555, -0.05683395, -0.7452937, 0.13423836, 0.25537205, 0.1014967, 0
469, 2149404775, 0.06491811, -0.6611229, -0.05682448, -0.7452988, 0.11730112, 0.28071496, 0.0872488, 0
470, 2149421442, 0.06495067, -0.6611058, -0.05678189, -0.7453144, 0.094843484, 0.3631592, 0.06213379, 0
471, 2149438109, 0.065012604, -0.66109604, -0.056731783, -0.74532145, 0.1322753, 0.35362622, 0.078692436, 0
472, 2149454776, 0.065118015, -0.6610817, -0.05669372, -0.74532783, 0.14111717, 0.22401637, 0.07580757, 0
473, 2149471443, 0.065182105, -0.6610628, -0.056624323, -0.74534434, 0.13059616, 0.22378995, 0.097540855, 0
474, 2149488110, 0.06526449, -0.66103554, -0.056562997, -0.7453659, 0.07943173, 0.2723111, 0.07931423, 0
475, 2149504777, 0.0653359, -0.66102093, -0.056492206, -0.745378, 0.084574826, 0.2910571, 0.030517578, 0
476, 2149521444, 0.06538451, -0.6610125, -0.056385163, -0.7453893, 0.098964155, 0.2820725, 0.04436779, 0
477, 2149538111, 0.06547348, -0.6610034, -0.056299, -0.7453962, 0.105680525, 0.29142624, 0.079600334, 0
478, 2149554778, 0.06561689, -0.6609907, -0.056227926, -0.74540013, 0.120078705, 0.29765785, 0.07287598, 0
479, 2149571445, 0.06573703, -0.6609791, -0.056132775, -0.745407, 0.11842855, 0.29627413, 0.010965347, 0
480, 2149588112, 0.06585798, -0.6609571, -0.056077782, -0.74542, 0.20726494, 0.106356464, 0.23373032, 0
481, 2149604779, 0.065936, -0.6609229, -0.05603237, -0.74544674, 0.36090603, 0.43149972, 0.08510876, 0
482, 2149621446, 0.066070035, -0.66088, -0.055967715, -0.74547786, 0.14122875, 0.89104056, 0.22151852, 0
483, 2149638113, 0.06617136, -0.66083455, -0.055821843, -0.7455201, 0.054974828, 0.48882753, -0.12956429, 0
484, 2149654780, 0.0662426, -0.66080564, -0.055793464, -0.74554145, -0.036640927, -0.13690738, -0.15389729, 0
485, 2149671447, 0.0662349, -0.6608094, -0.05579009, -0.745539, -0.27786735, 0.032818966, 0.09090042, 0
486, 2149688114, 0.06623642, -0.66080403, -0.05572645, -0.74554837, -0.38412115, 0.32959303, 0.1554184, 0
487, 2149704781, 0.06632853, -0.6607942, -0.055655878, -0.7455542, -0.32349637, 0.22028258, 0.02040577, 0
488, 2149721448, 0.066462725, -0.6607707, -0.055608805, -0.74556655, -0.36631325, 0.16294166, -0.027026176, 0
489, 2149738115, 0.06662582, -0.66074705, -0.055470433, -0.74558324, -0.5369142, 0.33225822, -0.0076007843, 0
490, 2149754782, 0.06678417, -0.66073436, -0.05525207, -0.74559665, -0.54207873, 0.2216093, -0.062485695, 0
491, 2149771449, 0.06691595, -0.66073304, -0.05507669, -0.745599, -0.42531222, 0.050925247, -0.1496315, 0
492, 2149788116, 0.066988826, -0.66072136, -0.05500473, -0.74560803, -0.34371918, 0.11950405, -0.08642483, 0
493, 2149804783, 0.06695782, -0.66071033, -0.05491616, -0.74562716, -0.28418353, 0.3376418, 0.012761116, 0
494, 2149821450, 0.067031905, -0.66069776, -0.054942332, -0.74562967, -0.179265, 0.32100332, 0.010149956, 0
495, 2149838117, 0.06698558, -0.6606914, -0.054961134, -0.7456382, -0.0789904, 0.25859198, -0.018994331, 0
496, 2149854784, 0.06693268, -0.660698, -0.055070385, -0.745629, -0.025091628, 0.3896765, 0.065338135, 0
497, 2149871451, 0.06687593, -0.660691, -0.055171955, -0.7456327, 0.083243065, 0.4051084, 0.11963749, 0
498, 2149888118, 0.06680465, -0.66066587, -0.055255525, -0.7456553, 0.2031498, 0.2974221, 0.15790081, 0
499, 2149904785, 0.06669224, -0.66063154, -0.055311143, -0.74569166, 0.3169696, 0.25582406, 0.100414276, 0
500, 2149921452, 0.066587895, -0.6605934, -0.055414762, -0.745727, 0.2982949, 0.33760318, 0.073225975, 0
501, 2149938119, 0.06654343, -0.6605637, -0.055515137, -0.7457498, 0.28326806, 0.40510598, 0.06045723, 0
502, 2149954786, 0.0665193, -0.66052645, -0.055592522, -0.7457792, 0.28685004, 0.35047093, 0.119148254, 0
503, 2149971453, 0.06649026, -0.66050327, -0.055640034, -0.74579877, 0.3275258, 0.33618113, 0.09987354, 0
504, 2149988120, 0.06647262, -0.66047806, -0.055689715, -0.74581903, 0.34201658, 0.4095264, 0.100764275, 0
505, 2150004787, 0.06642748, -0.6604496, -0.055642158, -0.74585176, 0.3249846, 0.38104868, 0.10618687, 0
506, 2150021454, 0.066386744, -0.6604256, -0.0556023, -0.7458796, 0.35094357, 0.30843788, 0.11398888, 0
507, 2150038121, 0.06633152, -0.66040045, -0.055576805, -0.74590856, 0.31001475, 0.36927864, 0.07846451, 0
508, 2150054788, 0.06630266, -0.66036665, -0.055579565, -0.7459409, 0.298245, 0.44409144, 0.061561584, 0
509, 2150071455, 0.06625961, -0.66035455, -0.055557657, -0.7459571, 0.2910584, 0.40587062, 0.08269119, 0
510, 2150088122, 0.06616174, -0.6603361, -0.05549955, -0.7459866, 0.30435428, 0.36372414, 0.11866188, 0
511, 2150104789, 0.06614593, -0.660301, -0.055516124, -0.7460177, 0.2957505, 0.38951883, 0.119755745, 0
512, 2150121456, 0.066181794, -0.6602673, -0.055577654, -0.74603975, 0.2583395, 0.39804804, 0.11991501, 0
513, 2150138123, 0.06620156, -0.6602341, -0.055609614, -0.746065, 0.22524671, 0.3311864, 0.06528282, 0
514, 2150154790, 0.06619791, -0.66020924, -0.0556437, -0.74608475, 0.21779402, 0.3420321, 0.078095436, 0
515, 2150171457, 0.06619095, -0.6601952, -0.05568155, -0.746095, 0.212593, 0.41071704, 0.081430435, 0
516, 2150188124, 0.06610221, -0.6601914, -0.055672795, -0.7461069, 0.20607857, 0.40680453, 0.09567928, 0
517, 2150204791, 0.06599964, -0.66017485, -0.055667095, -0.74613106, 0.21082078, 0.3296996, 0.12517262, 0
518, 2150221458, 0.065990195, -0.66014874, -0.055756986, -0.7461482, 0.2057997, 0.3265176, 0.07980633, 0
519, 2150238125, 0.06591682, -0.66013664, -0.055797927, -0.7461624, 0.17469761, 0.38477042, 0.08849144, 0
520, 2150254792, 0.06578621, -0.6601199, -0.055760514, -0.7461916, 0.1785492, 0.35909963, 0.08453274, 0
521, 2150271459, 0.06571968, -0.6601035, -0.055771686, -0.7462111, 0.24333967, 0.25478688, 0.0897522, 0
522, 2150288126, 0.065652356, -0.660078, -0.055796474, -0.7462376, 0.26577017, 0.30693737, 0.07932758, 0
523, 2150304793, 0.065575875, -0.6600555, -0.055808615, -0.74626344, 0.16472204, 0.37083247, 0.057700157, 0
524, 2150321460, 0.06549004, -0.6600371, -0.05578019, -0.7462894, 0.14300327, 0.33671898, 0.06288624, 0
525, 2150338127, 0.06545439, -0.6600244, -0.05577199, -0.7463044, 0.16084933, 0.27200514, 0.06265926, 0
526, 2150354794, 0.06543788, -0.6600217, -0.05577565, -0.74630797, 0.13628037, 0.29159752, 0.070090294, 0
527, 2150371461, 0.06541981, -0.66001683, -0.05577515, -0.74631375, 0.1270676, 0.3606925, 0.054228783, 0
528, 2150388128, 0.065483585, -0.6599999, -0.055823192, -0.7463195, 0.0936864, 0.3565859, 0.05986023, 0
529, 2150404795, 0.06539071, -0.66000235, -0.055723988, -0.74633306, 0.08928347, 0.2748259, 0.0743618, 0
530, 2150421462, 0.0653974, -0.65999424, -0.055710163, -0.7463406, 0.11082874, 0.2797971, 0.09281254, 0
531, 2150438129, 0.06540075, -0.65998936, -0.055688363, -0.74634635, 0.073780596, 0.3386647, 0.087771416, 0
532, 2150454796, 0.06543087, -0.65998286, -0.055673737, -0.74635047, 0.09188728, 0.3656823, 0.07615185, 0
533, 2150471463, 0.06543171, -0.6599788, -0.055610735, -0.74635863, 0.14239685, 0.29560366, 0.077129364, 0
534, 2150488130, 0.065533355, -0.6599562, -0.055632763, -0.746368, 0.15180425, 0.2620002, 0.05350685, 0
535, 2150504797, 0.065528184, -0.65993893, -0.05552664, -0.7463917, 0.114328355, 0.32850656, 0.05290985, 0
536, 2150521464, 0.06558043, -0.659932, -0.055494383, -0.7463955, 0.104071386, 0.29742736, 0.049866676, 0
537, 2150538131, 0.065601006, -0.659921, -0.055459682, -0.7464062, 0.115381464, 0.31606385, 0.08729935, 0
538, 2150554798, 0.065604076, -0.65991396, -0.055425245, -0.74641466, 0.13262041, 0.3662129, 0.07706261, 0
539, 2150571465, 0.06567921, -0.65989184, -0.055412587, -0.74642843, 0.11414211, 0.34562036, 0.067946434, 0
540, 2150588132, 0.065693125, -0.6598748, -0.055350363, -0.7464471, 0.089605905, 0.3220041, 0.054074287, 0
541, 2150604799, 0.06569879, -0.6598721, -0.055295806, -0.746453, 0.048407737, 0.3108531, 0.06508732, 0
542, 2150621466, 0.065696895, -0.65987146, -0.05524769, -0.7464573, 0.06023948, 0.33408007, 0.063056946, 0
543, 2150638133, 0.065716386, -0.65985316, -0.05522266, -0.7464736, 0.10127927, 0.31699523, 0.07019806, 0
544, 2150654800, 0.06573731, -0.6598429, -0.055199984, -0.74648243, 0.068467684, 0.30944803, 0.065527916, 0
545, 2150671467, 0.065755054, -0.65981823, -0.055143002, -0.74650687, 0.05884108, 0.27929974, 0.072395325, 0
546, 2150688134, 0.06578265, -0.65981025, -0.05512366, -0.7465129, 0.039725054, 0.3074524, 0.04527855, 0
547, 2150704801, 0.06583578, -0.6598012, -0.055134878, -0.7465154, 0.037260212, 0.35115018, 0.04477787, 0
548, 2150721468, 0.06577772, -0.6597977, -0.055064738, -0.7465288, 0.07482084, 0.36005998, 0.04115963, 0
549, 2150738135, 0.06584405, -0.6597797, -0.055091288, -0.74653685, 0.07889758, 0.31062043, 0.07034588, 0
550, 2150754802, 0.06589767, -0.6597575, -0.05511334, -0.7465502, 0.0976382, 0.29232097, 0.07439709, 0
551, 2150771469, 0.06590873, -0.6597422, -0.055110756, -0.7465629, 0.06934023, 0.28828624, 0.05244732, 0
552, 2150788136, 0.06590617, -0.6597417, -0.05509871, -0.74656445, 0.05866963, 0.3070606, 0.07729721, 0
553, 2150804803, 0.06597395, -0.6597278, -0.055133842, -0.74656826, 0.09131627, 0.34822273, 0.035987854, 0
554, 2150821470, 0.0659799, -0.65972555, -0.055121813, -0.7465706, 0.084811494, 0.35274944, 0.0667181, 0
555, 2150838137, 0.06598511, -0.6597085, -0.055114552, -0.7465856, 0.0888024, 0.33410478, 0.11185455, 0
556, 2150854804, 0.06598507, -0.6596926, -0.055095524, -0.7466013, 0.07300645, 0.31231543, 0.08598995, 0
557, 2150871471, 0.06596603, -0.65966964, -0.055081356, -0.74662423, 0.0666754, 0.33933443, 0.066633224, 0
558, 2150888138, 0.06598598, -0.65965915, -0.05507772, -0.746632, 0.096518174, 0.36504894, 0.057373047, 0
559, 2150904805, 0.06601751, -0.6596403, -0.05506909, -0.7466465, 0.08440358, 0.29456756, 0.06328869, 0
560, 2150921472, 0.06602511, -0.6596222, -0.055060733, -0.74666244, 0.04509381, 0.26880652, 0.04548931, 0
561, 2150938139, 0.06600855, -0.6596285, -0.055046476, -0.74665934, 0.031470038, 0.34021628, 0.03164959, 0
562, 2150954806, 0.0659645, -0.65962267, -0.05499267, -0.7466723, 0.03561755, 0.36694154, 0.06723499, 0
563, 2150971473, 0.065945424, -0.6596052, -0.054947063, -0.7466928, 0.079411805, 0.30909896, 0.060347557, 0
564, 2150988140, 0.06594674, -0.65960276, -0.054945815, -0.746695, 0.06550726, 0.24610302, 0.07169056, 0
565, 2151004807, 0.06595686, -0.65959346, -0.054961935, -0.74670106, 0.025355456, 0.32721946, 0.06289482, 0
566, 2151021474, 0.06592995, -0.659595, -0.054930817, -0.74670434, 0.054282546, 0.35666946, 0.056524277, 0
567, 2151038141, 0.0659404, -0.659579, -0.054933473, -0.74671745, 0.078507416, 0.29700133, 0.08088207, 0
568, 2151054808, 0.065950714, -0.659565, -0.05495172, -0.7467276, 0.07853938, 0.30230796, 0.06231308, 0
569, 2151071475, 0.06595504, -0.65955925, -0.054951403, -0.7467322, 0.034787465, 0.33383098, 0.08475685, 0
570, 2151088142, 0.065926686, -0.65954983, -0.054902844, -0.74674654, 0.04243012, 0.31818813, 0.065317154, 0
571, 2151104809, 0.06600255, -0.65953976, -0.054932456, -0.7467466, 0.06149802, 0.2561925, 0.05009556, 0
572, 2151121476, 0.0660239, -0.65952736, -0.05494631, -0.74675465, 0.05119498, 0.2927205, 0.037219048, 0
573, 2151138143, 0.06606731, -0.65951777, -0.054962896, -0.7467581, 0.04227672, 0.3299085, -0.046671867, 0
574, 2151154810, 0.06603174, -0.6595067, -0.05492464, -0.7467738, 0.13115638, 0.14293872, 0.25829506, 0
575, 2151171477, 0.06603435, -0.65947086, -0.05491208, -0.7468062, 0.20587018, 0.3440449, 0.21883106, 0
576, 2151188144, 0.066070914, -0.65943897, -0.054892983, -0.7468325, 0.11637311, 0.63065666, 0.1107769, 0
577, 2151204811, 0.06610144, -0.6593816, -0.054832097, -0.74688494, -0.09411808, 0.48901796, -0.11382103, 0
578, 2151221478, 0.066105336, -0.6593786, -0.054798942, -0.74688953, -0.19654839, 0.0105497, -0.20384312, 0
579, 2151238145, 0.06606063, -0.65936524, -0.054787528, -0.7469063, -0.36630857, -0.051666304, -0.011651039, 0
580, 2151254812, 0.06604254, -0.6593632, -0.05477621, -0.7469105, -0.4610942, 0.15980248, 0.15399837, 0
581, 2151271479, 0.06604532, -0.6593554, -0.054731935, -0.74692035, -0.39422008, 0.24221076, 0.04316044, 0
582, 2151288146, 0.06609863, -0.65932554, -0.05465988, -0.74694735, -0.44872177, 0.23016073, -0.037038803, 0
583, 2151304813, 0.06618306, -0.659305, -0.054578226, -0.7469639, -0.47706556, 0.22572574, -0.01837635, 0
584, 2151321480, 0.06627158, -0.65929204, -0.05450074, -0.74697316, -0.5005453, 0.23565704, -0.02383709, 0
585, 2151338147, 0.0663491, -0.65928644, -0.054456312, -0.7469745, -0.36911175, 0.17947443, -0.009883881, 0
586, 2151354814, 0.06639722, -0.6592736, -0.054437503, -0.7469828, -0.2450427, 0.16612053, 0.009986877, 0
587, 2151371481, 0.06639238, -0.6592538, -0.054444507, -0.74700016, -0.13570729, 0.25872168, 0.049473763, 0
588, 2151388148, 0.066377625, -0.65922445, -0.05445359, -0.7470268, -0.12539941, 0.33112428, 0.0019311905, 0
589, 2151404815, 0.06634098, -0.6592028, -0.054463834, -0.74704844, -0.13952512, 0.34325376, -0.0152311325, 0
590, 2151421482, 0.066371195, -0.659183, -0.054541506, -0.74705756, -0.10092237, 0.39041483, -0.0129776, 0
591, 2151438149, 0.066360325, -0.65917814, -0.05457315, -0.7470605, -0.060934946, 0.34934962, 0.01097393, 0
592, 2151454816, 0.066334605, -0.6591575, -0.054609843, -0.7470783, -0.015382916, 0.22504793, 0.016291618, 0
593, 2151471483, 0.066279456, -0.6591353, -0.054683026, -0.74709755, -0.026048152, 0.19967356, 0.045194626, 0
594, 2151488150, 0.0661708, -0.65912217, -0.05472634, -0.7471155, -0.006522569, 0.2609423, 0.0958395, 0
595, 2151504817, 0.06608942, -0.65910375, -0.054754283, -0.74713695, 0.03565413, 0.33044788, 0.093875885, 0
596, 2151521484, 0.06606491, -0.6590902, -0.05482473, -0.7471459, 0.042259008, 0.3831393, 0.10311985, 0
597, 2151538151, 0.066086575, -0.65906596, -0.05491144, -0.7471588, 0.03364021, 0.41904205, 0.11458683, 0
598, 2151554818, 0.06607993, -0.6590389, -0.054931086, -0.7471819, 0.09617928, 0.35047576, 0.0994091, 0
599, 2151571485, 0.06610305, -0.6590147, -0.054991048, -0.7471969, 0.12809694, 0.2575277, 0.07854748, 0
600, 2151588152, 0.066048816, -0.6589856, -0.05503999, -0.7472237, 0.1547889, 0.30511266, 0.05509758, 0
601, 2151604819, 0.065978125, -0.6589631, -0.055102933, -0.7472452, 0.15177695, 0.39143497, 0.036337852, 0
602, 2151621486, 0.066007726, -0.65892357, -0.05524193, -0.7472672, 0.18689157, 0.39241722, 0.09009361, 0
603, 2151638153, 0.065910324, -0.6588885, -0.05526817, -0.7473047, 0.20403771, 0.37304857, 0.10066891, 0
604, 2151654820, 0.06580269, -0.6588572, -0.05531037, -0.7473386, 0.18934946, 0.4485791, 0.11132431, 0
605, 2151671487, 0.06567414, -0.65883476, -0.055323597, -0.7473688, 0.17800577, 0.43163466, 0.08796787, 0
606, 2151688154, 0.06559205, -0.65880096, -0.055349417, -0.7474038, 0.13456057, 0.31605753, 0.094138145, 0
607, 2151704821, 0.06554262, -0.6587709, -0.055426903, -0.7474291, 0.16000795, 0.24281818, 0.102375984, 0
608, 2151721488, 0.06547455, -0.6587372, -0.055520527, -0.7474578, 0.14207548, 0.3378788, 0.076514244, 0
609, 2151738155, 0.06538376, -0.65871423, -0.05558168, -0.7474814, 0.14045165, 0.39593577, 0.08078194, 0
610, 2151754822, 0.06527907, -0.6586856, -0.05560437, -0.7475141, 0.12928635, 0.32587796, 0.08788872, 0
611, 2151771489, 0.06521877, -0.65865284, -0.055677567, -0.7475428, 0.08581237, 0.2791603, 0.0805521, 0
612, 2151788156, 0.06518683, -0.6586143, -0.055789936, -0.7475711, 0.058283295, 0.32327595, 0.047163963, 0
613, 2151804823, 0.06515075, -0.65859526, -0.055884946, -0.747584, 0.014009003, 0.3307918, 0.022145271, 0
614, 2151821490, 0.0651063, -0.6585758, -0.05596243, -0.7475991, 0.036277775, 0.23511373, 0.06253433, 0
615, 2151838157, 0.065054774, -0.65855235, -0.0560575, -0.7476171, 0.04861239, 0.24549629, 0.06545925, 0
616, 2151854824, 0.06497127, -0.6585285, -0.056115482, -0.74764115, 0.06879747, 0.35033885, 0.07104874, 0
617, 2151871491, 0.064968854, -0.65850407, -0.05622468, -0.7476547, 0.079603314, 0.36799306, 0.08087158, 0
618, 2151888158, 0.064931616, -0.6584912, -0.05628935, -0.7476643, 0.06972307, 0.3003166, 0.10092926, 0
619, 2151904825, 0.06490397, -0.65847677, -0.05634963, -0.7476748, 0.10167886, 0.27534053, 0.094890594, 0
620, 2151921492, 0.06488594, -0.658456, -0.056383286, -0.74769205, 0.13219266, 0.33176598, 0.08824158, 0
621, 2151938159, 0.06489225, -0.65843993, -0.056413773, -0.7477035, 0.14877492, 0.3258848, 0.053943634, 0
622, 2151954826, 0.06492786, -0.65842533, -0.056461927, -0.74770963, 0.14393982, 0.3215192, 0.07555771, 0
623, 2151971493, 0.06495996, -0.65841484, -0.05648812, -0.74771404, 0.09795797, 0.33900958, 0.093673706, 0
624, 2151988160, 0.06497085, -0.6584048, -0.05646584, -0.7477236, 0.124118336, 0.38572142, 0.080657005, 0
625, 2152004827, 0.065037, -0.65839225, -0.05649079, -0.74772716, 0.12101137, 0.37924317, 0.05701828, 0
626, 2152021494, 0.06515946, -0.658374, -0.056557186, -0.7477275, 0.15219669, 0.33580574, 0.07501793, 0
627, 2152038161, 0.065145746, -0.6583575, -0.056483395, -0.74774885, 0.14418717, 0.37671325, 0.079797745, 0
628, 2152054828, 0.06518923, -0.65835387, -0.056464594, -0.7477497, 0.16065925, 0.40402174, 0.08641434, 0
629, 2152071495, 0.06521571, -0.65834105, -0.05642869, -0.74776125, 0.19432428, 0.4242166, 0.09876633, 0
630, 2152088162, 0.06527447, -0.65832126, -0.056447856, -0.7477721, 0.18413354, 0.42253727, 0.06078911, 0
631, 2152104829, 0.065348774, -0.6582963, -0.056452245, -0.74778736, 0.18793777, 0.3850533, 0.09027004, 0
632, 2152121496, 0.06542379, -0.6582808, -0.05646086, -0.7477938, 0.16183053, 0.31788754, 0.11192417, 0
633, 2152138163, 0.06541915, -0.6582679, -0.05642661, -0.7478081, 0.14484666, 0.36578706, 0.10495663, 0
634, 2152154830, 0.065406844, -0.6582483, -0.056407288, -0.7478279, 0.15540132, 0.43356597, 0.088829994, 0
635, 2152171497, 0.06542465, -0.65822405, -0.056411263, -0.7478473, 0.17211738, 0.38734546, 0.101249695, 0
636, 2152188164, 0.065447636, -0.6582079, -0.056415457, -0.7478592, 0.14613779, 0.34488076, 0.08542156, 0
637, 2152204831, 0.0654906, -0.65819377, -0.056426276, -0.74786705, 0.13006237, 0.34624857, 0.0813961, 0
638, 2152221498, 0.06548468, -0.658183, -0.056404285, -0.7478788, 0.119931266, 0.33720306, 0.0677824, 0
639, 2152238165, 0.06547292, -0.65817386, -0.056405254, -0.74788773, 0.13709728, 0.3278549, 0.0657959, 0
640, 2152254832, 0.065452725, -0.65815496, -0.056404438, -0.7479062, 0.1481237, 0.35904115, 0.056162834, 0
641, 2152271499, 0.06545384, -0.65813476, -0.056392778, -0.7479247, 0.11619455, 0.37220117, 0.08118725, 0
642, 2152288166, 0.065445706, -0.6581428, -0.056379806, -0.74791926, 0.105870664, 0.3338245, 0.060153008, 0
643, 2152304833, 0.06543943, -0.658139, -0.056370463, -0.74792403, 0.09631093, 0.33178896, 0.066342354, 0
644, 2152321500, 0.0654185, -0.6581377, -0.05635612, -0.7479281, 0.109672785, 0.36066556, 0.08655262, 0
645, 2152338167, 0.0654196, -0.6581352, -0.056341123, -0.7479311, 0.124229215, 0.36423874, 0.10622406, 0
646, 2152354834, 0.065424025, -0.6581156, -0.056308717, -0.74795043, 0.107890986, 0.31362814, 0.070364, 0
647, 2152371501, 0.065417856, -0.65810317, -0.056291766, -0.7479633, 0.09870362, 0.31970772, 0.08059311, 0
648, 2152388168, 0.065443456, -0.65808946, -0.056289587, -0.7479732, 0.08467476, 0.36386755, 0.06179905, 0
649, 2152404835, 0.0654584, -0.65807724, -0.056256108, -0.74798524, 0.09804131, 0.3487026, 0.064255714, 0
650, 2152421502, 0.065474756, -0.65806997, -0.05621563, -0.74799323, 0.12117889, 0.31034666, 0.07578564, 0
651, 2152438169, 0.065501265, -0.65806, -0.056188133, -0.7480017, 0.08614025, 0.34828436, 0.06564617, 0
652, 2152454836, 0.065554306, -0.65805435, -0.056173347, -0.7480031, 0.07659294, 0.35940105, 0.07183361, 0
653, 2152471503, 0.065569356, -0.6580462, -0.05614692, -0.748011, 0.066908635, 0.33185014, 0.057671547, 0
654, 2152488170, 0.065563336, -0.6580385, -0.056120634, -0.74802035, 0.06993297, 0.36707836, 0.07525635, 0
655, 2152504837, 0.06556002, -0.6580341, -0.056094848, -0.7480265, 0.04492481, 0.34860584, 0.071891785, 0
656, 2152521504, 0.06555182, -0.65801936, -0.0560525, -0.7480433, 0.07777762, 0.33619684, 0.06026554, 0
657, 2152538171, 0.065530926, -0.6580202, -0.05601772, -0.748047, 0.051091094, 0.32503405, 0.07117176, 0
658, 2152554838, 0.06553011, -0.6580173, -0.056011703, -0.7480501, 0.045021188, 0.33478317, 0.06952, 0
659, 2152571505, 0.06552135, -0.65800506, -0.055962805, -0.7480653, 0.08318046, 0.32365242, 0.075434685, 0
660, 2152588172, 0.06552595, -0.65800345, -0.055930387, -0.7480688, 0.057884958, 0.3062862, 0.071549416, 0
661, 2152604839, 0.065517716, -0.6579974, -0.055890594, -0.7480777, 0.06933169, 0.32171258, 0.06643295, 0
662, 2152621506, 0.065503106, -0.6579961, -0.05586866, -0.74808174, 0.05488378, 0.3622839, 0.049913406, 0
663, 2152638173, 0.06544991, -0.6579875, -0.055827405, -0.748097, 0.071457855, 0.37221935, 0.067723274, 0
664, 2152654840, 0.065465614, -0.65797466, -0.055802546, -0.74810874, 0.0509274, 0.32476327, 0.087433815, 0
665, 2152671507, 0.065467484, -0.6579638, -0.05574321, -0.74812263, 0.07356952, 0.28180456, 0.07434845, 0
666, 2152688174, 0.06550185, -0.6579549, -0.055715606, -0.7481295, 0.06903025, 0.30844453, 0.053206444, 0
667, 2152704841, 0.06550492, -0.65794975, -0.055680364, -0.74813646, 0.05166773, 0.38274536, 0.07046509, 0
668, 2152721508, 0.06552361, -0.6579492, -0.055649098, -0.74813765, 0.035443727, 0.38718978, 0.08588314, 0
669, 2152738175, 0.06551447, -0.6579539, -0.055577796, -0.74813956, 0.1706712, 0.2944737, -0.123963356, 0
670, 2152754842, 0.06551715, -0.6579416, -0.055558678, -0.7481516, 0.12362267, 0.17638072, 0.5415039, 0
671, 2152771509, 0.06555569, -0.65790015, -0.055521347, -0.7481874, 0.2135977, 0.5504012, 0.16553497, 0
672, 2152788176, 0.0656037, -0.65785253, -0.055455245, -0.74823004, -0.021681078, 0.73990166, 0.08886719, 0
673, 2152804843, 0.065635875, -0.65782934, -0.05540409, -0.7482513, -0.15719666, 0.2818599, -0.36546707, 0
674, 2152821510, 0.06558102, -0.65784913, -0.05541859, -0.7482377, -0.17665802, -0.16210534, -0.24031734, 0
675, 2152838177, 0.065542534, -0.65788174, -0.055469222, -0.74820864, -0.34291476, 0.0049625463, 0.15320873, 0
676, 2152854844, 0.06548325, -0.6578949, -0.055425514, -0.74820554, -0.40398866, 0.29538417, 0.24131012, 0
677, 2152871511, 0.06553966, -0.6578691, -0.055361506, -0.7482279, -0.45199013, 0.35191187, 0.061736107, 0
678, 2152888178, 0.06558199, -0.6578585, -0.055215865, -0.7482443, -0.5842921, 0.28420746, -0.06917381, 0
679, 2152904845, 0.065728866, -0.6578673, -0.055128604, -0.74823004, -0.6303123, 0.24728088, -0.14699364, 0
680, 2152921512, 0.06581914, -0.65789586, -0.055061568, -0.7482021, -0.5288653, 0.046282604, -0.10085297, 0
681, 2152938179, 0.06582244, -0.65791595, -0.055048626, -0.74818504, -0.27835476, 0.011943089, -0.014178276, 0
682, 2152954846, 0.065761596, -0.65791625, -0.055069003, -0.7481885, -0.18816392, 0.24627501, 0.101156235, 0
683, 2152971513, 0.0657252, -0.6578947, -0.055117864, -0.7482071, -0.18453977, 0.46305996, 0.12419224, 0
684, 2152988180, 0.0656473, -0.6578804, -0.055118643, -0.7482264, -0.15274657, 0.38795966, 0.013048172, 0
685, 2153004847, 0.06560312, -0.65787256, -0.055187903, -0.7482322, -0.041301318, 0.32899866, -0.045783043, 0
686, 2153021514, 0.06556864, -0.65788525, -0.055256113, -0.748219, 0.0101744495, 0.4131806, 0.05431938, 0
687, 2153038181, 0.065532, -0.65789336, -0.055252984, -0.7482154, 0.0885184, 0.36347777, 0.18750763, 0
688, 2153054848, 0.065480664, -0.6578877, -0.055231076, -0.7482264, 0.17518666, 0.25525007, 0.12116909, 0
689, 2153071515, 0.06546689, -0.65786797, -0.05526386, -0.7482424, 0.18504833, 0.30330148, 0.05628586, 0
690, 2153088182, 0.0654284, -0.65785855, -0.055238526, -0.74825597, 0.124005996, 0.38506335, 0.044137955, 0
691, 2153104849, 0.06545207, -0.65786016, -0.05521018, -0.7482546, 0.10938826, 0.43192682, 0.048436165, 0
692, 2153121516, 0.06547731, -0.6578622, -0.05516617, -0.7482539, 0.12103468, 0.4246576, 0.056941986, 0
693, 2153138183, 0.06555119, -0.65785944, -0.055140298, -0.7482517, 0.13819069, 0.41883808, 0.07973862, 0
694, 2153154850, 0.06562568, -0.65785414, -0.05503793, -0.7482574, 0.08311172, 0.3589305, 0.06489277, 0
695, 2153171517, 0.065718666, -0.6578689, -0.054901924, -0.7482463, 0.07464491, 0.31746942, -0.081650734, 0
696, 2153188184, 0.06578472, -0.65790296, -0.054715995, -0.74822414, 0.073311016, 0.46304533, -0.052087784, 0
697, 2153204851, 0.06590277, -0.6579545, -0.05453358, -0.74818176, 0.1280421, 0.2008194, 0.120942116, 0
698, 2153221518, 0.06596176, -0.6580035, -0.054335468, -0.74814796, 0.11422997, 0.07433929, 0.19008446, 0
699, 2153238185, 0.06609593, -0.65803623, -0.054154865, -0.7481204, -0.13712257, 0.47436947, -0.02987194, 0
700, 2153254852, 0.06629935, -0.6581088, -0.053835858, -0.7480616, -0.1470287, 0.34457618, -0.22461605, 0
701, 2153271519, 0.0664795, -0.6582012, -0.05346769, -0.7479906, 0.08875789, -0.13636123, -0.022953987, 0
702, 2153288186, 0.066714674, -0.6582859, -0.053248566, -0.7479109, 0.19591595, 0.28824207, 0.21776485, 0
703, 2153304853, 0.06697157, -0.65833014, -0.052955557, -0.7478697, 0.19077551, 0.77564424, 0.45123768, 0
704, 2153321520, 0.06727818, -0.658334, -0.052566152, -0.7478663, 0.31631124, 0.62865233, 0.4465332, 0
705, 2153338187, 0.067669906, -0.6583273, -0.052083187, -0.74787074, 0.25083846, 0.21727242, 0.41378784, 0
706, 2153354854, 0.068164006, -0.6583147, -0.051574077, -0.7478721, 0.22339632, 0.027322764, 0.4293642, 0
707, 2153371521, 0.06862074, -0.6583076, -0.051085133, -0.7478702, 0.03783208, 0.099129, 0.20974827, 0
708, 2153388188, 0.06903231, -0.65832764, -0.050587084, -0.7478485, -0.056784946, 0.59268564, -0.054096222, 0
709, 2153404855, 0.06932297, -0.65836805, -0.050067566, -0.74782103, -0.1175602, 0.3637641, 0.14163876, 0
710, 2153421522, 0.06955184, -0.6583797, -0.04978038, -0.7478087, -0.18226604, 0.15728472, -0.16556168, 0
711, 2153438189, 0.06983618, -0.65841234, -0.049621496, -0.74776405, -0.38535276, 0.6447861, -0.4899683, 0
712, 2153454856, 0.07012883, -0.65846574, -0.0493094, -0.7477101, -0.080064714, 0.60797423, -0.14593792, 0
713, 2153471523, 0.070441365, -0.6584795, -0.049028665, -0.74768716, 0.6581753, 0.14624944, 0.3387394, 0
714, 2153488190, 0.07063082, -0.6584385, -0.048841402, -0.7477176, 1.1920652, 0.40669915, 1.151537, 0
715, 2153504857, 0.07079878, -0.65826464, -0.04868656, -0.7478649, 0.81471956, 1.0968009, 1.7209339, 0
716, 2153521524, 0.070926875, -0.6580516, -0.048488323, -0.748053, -0.15597282, 0.88039637, -0.08819294, 0
717, 2153538191, 0.07097696, -0.65788174, -0.04843784, -0.748201, -0.7170508, -0.14364485, -0.8027773, 0
718, 2153554858, 0.07086105, -0.6577463, -0.0485635, -0.74832296, -1.4560845, -0.80350375, 0.08440018, 0
719, 2153571525, 0.07068738, -0.65760195, -0.048709564, -0.7484568, -1.4899282, -0.56602705, 0.029777527, 0
720, 2153588192, 0.07057437, -0.657414, -0.0487238, -0.74863154, -1.3399351, -0.45748067, -0.5712986, 0
721, 2153604859, 0.07053509, -0.6572665, -0.048488747, -0.74878, -1.6773351, 0.43254483, -0.33922577, 0
722, 2153621526, 0.070813194, -0.6570999, -0.048204552, -0.74891835, -1.7762502, 0.31630218, -0.26321602, 0
723, 2153638193, 0.07114288, -0.65690637, -0.04794477, -0.74907357, -1.967328, 0.15383402, -0.9013748, 0
724, 2153654860, 0.0714598, -0.65676767, -0.04780025, -0.7491741, -2.4476764, -0.04091332, -0.7319002, 0
725, 2153671527, 0.07160037, -0.65668744, -0.04773191, -0.7492355, -2.4437103, -0.47010222, -0.34200287, 0
726, 2153688194, 0.07153969, -0.6566596, -0.04782087, -0.74925995, -2.0774848, -0.8418116, -0.6451416, 0
727, 2153704861, 0.071404696, -0.65666366, -0.048103575, -0.74925137, -1.5426058, -0.34934124, -0.21579266, 0
728, 2153721528, 0.071340755, -0.6566332, -0.048247132, -0.7492747, -1.9256542, 0.618483, 0.9911461, 0
729, 2153738195, 0.07137197, -0.6565251, -0.048214164, -0.74936867, -1.8672801, 0.10759031, 0.07102966, 0
730, 2153754862, 0.07145951, -0.65641314, -0.04813477, -0.7494635, -2.3025024, -0.493161, -1.0388632, 0
731, 2153771529, 0.071675986, -0.65639764, -0.048121184, -0.74945736, -2.873001, -0.8611768, -0.86329365, 0
732, 2153788196, 0.07187411, -0.6564101, -0.04796276, -0.7494375, -3.2569704, -0.5174684, -0.5089712, 0
733, 2153804863, 0.07211572, -0.6564373, -0.047626875, -0.74941194, -3.4392974, -0.2357642, -0.42249012, 0
734, 2153821530, 0.072381824, -0.65646493, -0.04727365, -0.74938434, -3.3910675, -0.51904595, -0.024244308, 0
735, 2153838197, 0.07263332, -0.6563925, -0.046994522, -0.7494411, -3.248607, -0.51503325, -0.5411501, 0
736, 2153854864, 0.07282493, -0.656367, -0.046773672, -0.7494588, -3.764618, -0.4526117, -0.2706499, 0
737, 2153871531, 0.0729527, -0.6562951, -0.046498995, -0.74952644, -3.821462, -0.2698526, -0.48040485, 0
738, 2153888198, 0.07302519, -0.6561963, -0.046275415, -0.74961966, -3.5275881, -0.33300552, -1.0263939, 0
739, 2153904865, 0.07300125, -0.6560453, -0.04622281, -0.7497573, -4.1881986, -0.6607569, 0.4828291, 0
740, 2153921532, 0.07286906, -0.6559397, -0.046275765, -0.74985933, -4.1663465, -0.2555224, -1.1247511, 0
741, 2153938199, 0.07261151, -0.65583634, -0.046350334, -0.7499701, -3.5388846, -0.25811857, -0.8677168, 0
742, 2153954866, 0.07226032, -0.6556285, -0.046494838, -0.7501767, -4.175288, -0.7200349, -0.20691204, 0
743, 2153971533, 0.07182285, -0.6555622, -0.04676118, -0.7502602, -4.116999, -0.5796435, -0.9667797, 0
744, 2153988200, 0.07133002, -0.655489, -0.04701849, -0.7503552, -3.9810019, -0.27046576, 0.017172813, 0
745, 2154004867, 0.070777535, -0.6553673, -0.047290705, -0.7504966, -4.03478, -0.64373773, -0.9999075, 0
746, 2154021534, 0.0700995, -0.6552761, -0.047617216, -0.750619, -3.4574828, -0.35948992, -1.4047308, 0
747, 2154038201, 0.069351, -0.6551664, -0.047961812, -0.75076246, -4.5255814, -0.08218929, 1.3718624, 0
748, 2154054868, 0.068585455, -0.65512025, -0.048309576, -0.75085074, -4.584802, 0.07418406, -1.65973, 0
749, 2154071535, 0.06767513, -0.65506285, -0.048684254, -0.7509592, -3.981021, -0.28373238, -1.6364393, 0
750, 2154088202, 0.06661148, -0.65494347, -0.049056716, -0.75113416, -5.0056906, -0.3167749, 0.55655575, 0
751, 2154104869, 0.06546385, -0.6547753, -0.049384646, -0.7513601, -5.4316473, -0.11748299, 0.85239697, 0
752, 2154121536, 0.064196005, -0.65474033, -0.049726967, -0.75147754, -4.7174535, -0.2257035, -1.969399, 0
753, 2154138203, 0.06276151, -0.6546567, -0.050334953, -0.7516311, -4.43439, -0.7100034, -0.5134392, 0
754, 2154154870, 0.06119783, -0.65435696, -0.05096233, -0.7519786, -5.118079, 0.23636104, -0.30068493, 0
755, 2154171537, 0.059588432, -0.65420926, -0.05124825, -0.75221694, -4.939285, 0.5552091, -1.3859806, 0
756, 2154188204, 0.05786884, -0.65410274, -0.05145675, -0.7524294, -4.593168, -0.5573684, -1.1487083, 0
757, 2154204871, 0.056019533, -0.65413284, -0.05178415, -0.75252086, -5.411081, -0.16545977, -1.0697927, 0
758, 2154221538, 0.05411495, -0.6542082, -0.05192117, -0.75258535, -4.1701827, 0.64594454, -0.9704561, 0
759, 2154238205, 0.05225369, -0.65420645, -0.051753476, -0.7527299, -2.866299, 0.7551067, -1.873764, 0
760, 2154254872, 0.050382335, -0.6542975, -0.051358763, -0.7528054, -3.6952667, -0.5751284, 0.37316513, 0
761, 2154271539, 0.04835359, -0.6545989, -0.050966367, -0.75270295, -1.9019355, -0.16156639, -2.0577602, 0
762, 2154288206, 0.046325065, -0.65472937, -0.050485447, -0.75274956, -0.16777028, 0.7745419, 0.105176926, 0
763, 2154304873, 0.044149995, -0.654868, -0.049977798, -0.7527936, -0.32010895, 1.1591352, 1.8015261, 0
764, 2154321540, 0.041840263, -0.65520304, -0.050050188, -0.75262916, 1.4653281, 1.610775, 0.12002182, 0
765, 2154338207, 0.03944288, -0.6554323, -0.05067542, -0.75251716, 2.732252, 1.4787501, 0.084994316, 0
766, 2154354874, 0.037116297, -0.6555873, -0.051597998, -0.7524377, 3.1202679, 0.44277394, 1.2934399, 0
767, 2154371541, 0.034862544, -0.6556816, -0.05278115, -0.7523813, 3.5025241, -0.64559215, 2.0953283, 0
768, 2154388208, 0.032621026, -0.6557786, -0.05407598, -0.7523053, 3.71651, -0.3507571, 1.2490072, 0
769, 2154404875, 0.030560613, -0.655794, -0.0554443, -0.75227886, 3.2464156, -0.016321307, 1.3475103, 0
770, 2154421542, 0.028864868, -0.65579504, -0.05680099, -0.7522437, 2.9562387, 0.09744958, -0.7205744, 0
771, 2154438209, 0.027485937, -0.6557202, -0.05810739, -0.75226074, 2.6114643, -0.05168072, 0.73864937, 0
772, 2154454876, 0.02634013, -0.6554755, -0.059478812, -0.7524078, 2.7418723, 0.13090076, 0.92230034, 0
773, 2154471543, 0.025463048, -0.6553139, -0.06075886, -0.7524765, 1.275791, -0.15586221, 1.493412, 0
774, 2154488210, 0.02473281, -0.6553472, -0.06171166, -0.7523944, 1.01583, -0.20426133, -0.006184578, 0
775, 2154504877, 0.02418759, -0.6554605, -0.062474743, -0.7522504, 1.4139378, -0.73992974, -1.5546465, 0
776, 2154521544, 0.023802955, -0.6554763, -0.06324172, -0.7521848, 1.5395864, -0.21564941, 0.1980257, 0
777, 2154538211, 0.02383073, -0.6554856, -0.0636807, -0.7521388, 0.8254225, 0.7616278, 1.3101683, 0
778, 2154554878, 0.024347272, -0.65550643, -0.063522205, -0.7521174, 1.0207638, 0.65748197, 1.8608923, 0
779, 2154571545, 0.02513754, -0.65560585, -0.06289622, -0.75205755, 0.45156232, -0.7050004, 0.062205315, 0
780, 2154588212, 0.025926206, -0.6557862, -0.06197536, -0.75194985, 0.8733927, -0.21229795, -1.6950598, 0
781, 2154604879, 0.026851516, -0.6558449, -0.06059338, -0.75197875, 0.23951033, 1.5833241, -0.13310051, 0
782, 2154621546, 0.028013058, -0.65596026, -0.05871382, -0.75198495, 0.287713, 1.520575, 1.4638004, 0
783, 2154638213, 0.029221836, -0.6560677, -0.05662211, -0.75200564, 0.4483096, 1.0682781, 0.9986763, 0
784, 2154654880, 0.030373916, -0.65606475, -0.054457143, -0.75212234, 0.30671763, 1.337219, -1.0298967, 0
785, 2154671547, 0.03140925, -0.6561025, -0.052017428, -0.7522196, 0.095124476, 1.6740861, -1.2005854, 0
786, 2154688214, 0.032189388, -0.65607935, -0.049286246, -0.7523907, -0.7096033, 1.929079, 0.16109371, 0
787, 2154704881, 0.032716982, -0.6561576, -0.046586867, -0.7524716, -0.8559634, 1.7101558, 0.69652843, 0
788, 2154721548, 0.03302871, -0.65614086, -0.044169795, -0.7526185, -0.5204703, 0.98447967, 0.6923275, 0
789, 2154738215, 0.033068955, -0.65614486, -0.041853946, -0.75274557, -1.5684286, 1.4498447, -0.5739479, 0
790, 2154754882, 0.03295544, -0.65622276, -0.039429367, -0.7528134, -1.9687611, 1.471625, -2.194303, 0
791, 2154771549, 0.032738212, -0.656353, -0.03703347, -0.752831, -2.2067864, 0.60789436, -0.8823919, 0
792, 2154788216, 0.032337964, -0.65651554, -0.034710053, -0.7528174, -1.7980051, -0.12204483, 1.621562, 0
793, 2154804883, 0.03171526, -0.65655315, -0.032563955, -0.7529071, -2.3814, 0.07474288, -0.17653751, 0
794, 2154821550, 0.031090725, -0.6567403, -0.030759305, -0.7528456, -2.5291548, 0.46680513, -0.655035, 0
795, 2154838217, 0.030356687, -0.65689373, -0.029084973, -0.75280833, -2.5679224, 0.16216703, -0.7800932, 0
796, 2154854884, 0.029484872, -0.657148, -0.027351726, -0.752686, -3.0490222, 0.059581067, -0.31558132, 0
797, 2154871551, 0.028563369, -0.6573602, -0.025792554, -0.75259125, -2.2458298, -0.27133578, 0.27501202, 0
798, 2154888218, 0.027601968, -0.6574985, -0.024519563, -0.7525488, -2.3713324, -0.598163, 1.4719753, 0
799, 2154904885, 0.02673022, -0.6575426, -0.023683026, -0.7525686, -2.8978639, -0.23855639, 0.2843895, 0
800, 2154921552, 0.025942907, -0.6576372, -0.02298347, -0.75253516, -3.1877038, 0.04693755, -1.629592, 0
801, 2154938219, 0.025214255, -0.6577554, -0.02222465, -0.7524795, -3.884846, -0.5696879, -0.7678137, 0
802, 2154954886, 0.024528846, -0.6580946, -0.021538168, -0.7522255, -3.8865533, -1.3373638, -1.965044, 0
803, 2154971553, 0.023908913, -0.6582556, -0.021087106, -0.7521172, -2.650798, -0.91354316, -0.004631996, 0
804, 2154988220, 0.02333761, -0.6581494, -0.020777784, -0.7522369, -2.1705937, -0.38753477, 3.139391, 0
805, 2155004887, 0.02292274, -0.65788144, -0.020491369, -0.75249165, -2.9585905, 0.49856254, -0.302536, 0
806, 2155021554, 0.022797335, -0.6579184, -0.020045992, -0.7524753, -4.997495, -0.042213608, -4.603997, 0
807, 2155038221, 0.022893384, -0.6582191, -0.019421723, -0.7522256, -4.7795796, -1.12987, -2.3263774, 0
808, 2155054888, 0.023119308, -0.6584325, -0.018663295, -0.7520513, -2.8751395, -0.8519953, 0.52685547, 0
809, 2155071555, 0.023303106, -0.658341, -0.01775721, -0.75214756, -1.3259581, -0.628195, 4.214509, 0
810, 2155088222, 0.023485973, -0.6578948, -0.016855694, -0.75255305, -1.4655132, 0.5782369, 0.2888403, 0
811, 2155104889, 0.023704447, -0.6575824, -0.01600938, -0.7528375, -2.1025684, 0.60018367, -2.409059, 0
812, 2155121556, 0.02376943, -0.6574922, -0.01538033, -0.7529274, -3.8936257, -0.09148109, -1.6997766, 0
813, 2155138223, 0.023655083, -0.65776056, -0.0148128085, -0.7527081, -2.743739, 0.9505292, -1.5327969, 0
814, 2155154890, 0.023220763, -0.65793175, -0.014299419, -0.75258183, -1.755705, 0.2986906, 1.2429733, 0
815, 2155171557, 0.022482697, -0.6579532, -0.014237236, -0.75258654, -1.5791152, 0.5419785, 2.074337, 0
816, 2155188224, 0.021476805, -0.65790087, -0.014612958, -0.7526547, -0.7206624, 0.66445285, -0.06678772, 0
817, 2155204891, 0.020127494, -0.6578407, -0.015249107, -0.7527318, -1.2505153, 0.53657097, -1.693286, 0
818, 2155221558, 0.018547732, -0.65789974, -0.016222112, -0.75270045, -2.3771636, 0.007270384, 0.16050625, 0
819, 2155238225, 0.016791157, -0.6581101, -0.017442998, -0.7525304, -1.6930693, -0.117207624, -0.9258461, 0
820, 2155254892, 0.014928486, -0.6582771, -0.018750187, -0.7523922, 0.29806346, 0.38346535, -2.507535, 0
821, 2155271559, 0.01298685, -0.65824026, -0.020132743, -0.7524247, -0.09654937, 0.13626102, 1.0341768, 0
822, 2155288226, 0.011025567, -0.658385, -0.021325245, -0.75229657, -1.3127124, 0.7899519, 3.1302814, 0
823, 2155304893, 0.009237088, -0.6586223, -0.02226318, -0.7520857, 0.62350136, 1.1134123, -3.3119102, 0
824, 2155321560, 0.007674411, -0.65853924, -0.023176007, -0.75214833, -0.47920737, -0.49309993, -0.21247864, 0
825, 2155338227, 0.0062871166, -0.6585814, -0.023650873, -0.7521096, -2.7712967, 0.8585619, -1.7831106, 0
826, 2155354894, 0.0054473095, -0.65904593, -0.02343167, -0.751716, -0.5336317, -0.058969058, -1.3238192, 0
827, 2155371561, 0.004653856, -0.65928805, -0.023345511, -0.7515117, -1.6583974, -1.3941513, 4.7324734, 0
828, 2155388228, 0.0040093847, -0.65954334, -0.023139335, -0.7512977, 0.25022018, 0.5718711, -0.16969776, 0
829, 2155404895, 0.003543537, -0.65936327, -0.022804711, -0.75146836, 1.5780528, 0.4433275, -1.8628793, 0
830, 2155421562, 0.0030530132, -0.6591599, -0.022488084, -0.7516586, -0.37420258, 0.46704924, 0.21327877, 0
831, 2155438229, 0.002406638, -0.65934217, -0.022301424, -0.7515064, 1.9401093, 0.19339384, -0.14526272, 0
832, 2155454896, 0.0015670061, -0.6594573, -0.022971079, -0.75138736, 2.8904195, -1.092644, 3.8001137, 0
833, 2155471563, 5.187504E-4, -0.65961236, -0.024462987, -0.75120574, 4.421924, -0.7211876, 2.9781246, 0
834, 2155488230, -4.852526E-4, -0.6595101, -0.026151482, -0.7512389, 5.437711, -0.51477003, -0.07903671, 0
835, 2155504897, -0.0012523606, -0.6592728, -0.028089795, -0.75137603, 4.117514, -1.0102615, -0.3682928, 0
836, 2155521564, -0.0016244985, -0.6590312, -0.03008506, -0.75151, 3.5584657, -0.8706332, -1.4644136, 0
837, 2155538231, -0.0015085079, -0.65869915, -0.031879712, -0.7517273, 3.4528334, -0.6637576, -0.43476582, 0
838, 2155554898, -9.15993E-4, -0.65826726, -0.033348408, -0.75204283, 2.9101374, -0.72166747, 0.9376364, 0
839, 2155571565, -6.529689E-5, -0.6579868, -0.034362715, -0.7522433, 1.7230498, -0.4738325, 3.5146132, 0
840, 2155588232, 9.2978776E-4, -0.65799963, -0.035048116, -0.7521997, 1.1340826, 0.073592454, 1.521533, 0
841, 2155604899, 0.0020418726, -0.6580833, -0.035365373, -0.7521096, 1.4247211, 0.2812323, -1.1611633, 0
842, 2155621566, 0.003192138, -0.65816575, -0.035475936, -0.75202805, 1.0123025, 0.31467304, -0.3832035, 0
843, 2155638233, 0.0044233613, -0.6582898, -0.035424836, -0.75191575, 0.5623361, 0.2878002, 0.2400217, 0
844, 2155654900, 0.005570542, -0.65826, -0.03508087, -0.75195044, 1.145269, 0.36380807, -0.6749239, 0
845, 2155671567, 0.006750725, -0.65798384, -0.03433454, -0.7522169, 0.90908235, 0.7850411, -0.33934307, 0
846, 2155688234, 0.007992644, -0.657629, -0.0331356, -0.7525687, -0.40367737, 0.7797753, 0.3767624, 0
847, 2155704901, 0.009192064, -0.65742385, -0.031950876, -0.7527853, -0.99686176, -0.19102739, 1.1949329, 0
848, 2155721568, 0.010391742, -0.6574924, -0.030887984, -0.7527542, -0.9583384, 0.6884075, -1.0650148, 0
849, 2155738235, 0.011569772, -0.6574447, -0.029423669, -0.75283736, -0.4179693, 1.290058, 0.07435799, 0
850, 2155754902, 0.012745645, -0.65728724, -0.027987078, -0.7530105, -0.5387936, 0.14522022, 0.7304659, 0
851, 2155771569, 0.013854589, -0.65705967, -0.026885934, -0.75322974, -0.8411831, -0.40291154, 0.22004986, 0
852, 2155788236, 0.014735103, -0.65702266, -0.026058719, -0.7532745, -2.4649527, -0.06604615, -1.1910086, 0
853, 2155804903, 0.015518751, -0.6572576, -0.025408573, -0.7530757, -2.2420084, 0.5231893, -2.3420753, 0
854, 2155821570, 0.016301502, -0.65747935, -0.024912871, -0.75288224, -2.364472, -0.7083133, 0.5065384, 0
855, 2155838237, 0.0169812, -0.6578447, -0.02497987, -0.7525458, -1.9703429, -2.2609463, -0.487566, 0
856, 2155854904, 0.017453142, -0.65806216, -0.025614873, -0.7523234, -1.5437931, -1.231254, 0.8644371, 0
857, 2155871571, 0.017887142, -0.65831655, -0.026249904, -0.75206876, -2.3166544, 0.05818545, 1.4748726, 0
858, 2155888238, 0.018453341, -0.65850633, -0.026836798, -0.7518681, -1.2504939, -1.0477163, -1.1961842, 0
859, 2155904905, 0.019174013, -0.6586302, -0.027651183, -0.75171226, -2.0639389, -1.7521749, -1.5898476, 0
860, 2155921572, 0.02012669, -0.6588533, -0.028657716, -0.75145406, -3.2839754, -1.1072967, -1.8392539, 0
861, 2155938239, 0.021086365, -0.6591731, -0.029467523, -0.7511159, -2.9219778, -1.2163509, -3.5540276, 0
862, 2155954906, 0.021901771, -0.6591766, -0.03005584, -0.75106627, -0.55759424, -1.044144, 0.44840145, 0
863, 2155971573, 0.022764295, -0.6586833, -0.030730642, -0.75144595, 0.025857428, -0.19208021, 4.2639036, 0
864, 2155988240, 0.023788001, -0.6581796, -0.03137283, -0.7518291, -1.1858742, 0.07387416, 3.8023558, 0
865, 2156004907, 0.024868097, -0.658039, -0.03184094, -0.7518973, -2.2853847, 0.33738846, -0.36409283, 0
866, 2156021574, 0.026066024, -0.65831655, -0.03212733, -0.75160164, -2.3136866, -0.25291866, -2.0497136, 0
867, 2156038241, 0.02724465, -0.6585433, -0.032477103, -0.751346, -1.1521266, -1.095528, -2.7390518, 0
868, 2156054908, 0.028397474, -0.65859616, -0.033066045, -0.7512313, -1.1011497, -0.80380106, -0.053250313, 0
869, 2156071575, 0.029554743, -0.6584602, -0.033664227, -0.7512793, -1.5900897, -0.7098757, 2.0370865, 0
870, 2156088242, 0.030523416, -0.6583804, -0.034014042, -0.75129473, -1.0895923, -0.2973348, 0.121100426, 0
871, 2156104909, 0.0315928, -0.6582192, -0.03433644, -0.75137717, -1.4440271, 0.0634237, -0.3430872, 0
872, 2156121576, 0.03268967, -0.65816927, -0.034831513, -0.7513511, -2.292681, -0.61491054, -1.7113686, 0
873, 2156138243, 0.033622272, -0.6581986, -0.035535667, -0.75125134, -2.1893578, -0.23802987, -0.66716576, 0
874, 2156154910, 0.034294695, -0.65823853, -0.03631477, -0.75114864, -1.9277579, -0.12937991, -0.5695782, 0
875, 2156171577, 0.034607366, -0.6582358, -0.037150066, -0.7510959, -1.6625851, -0.04697281, 2.126522, 0
876, 2156188244, 0.034729067, -0.65805286, -0.038371924, -0.75118905, -0.97048366, 0.10526616, 1.2204638, 0
877, 2156204911, 0.034660667, -0.6576163, -0.040017582, -0.75148857, -1.4264315, 0.5424257, 1.380209, 0
878, 2156221578, 0.034443386, -0.6570459, -0.041709285, -0.7519055, -1.5656778, 0.91183406, -0.84821415, 0
879, 2156238245, 0.0339631, -0.65646714, -0.043247476, -0.7523459, -2.5751154, 0.13906847, -1.860611, 0
880, 2156254912, 0.03313503, -0.65631807, -0.044959668, -0.7524125, -4.435542, -0.67456347, -0.22377396, 0
881, 2156271579, 0.0320393, -0.6565711, -0.046998642, -0.75211453, -4.5772, 0.05002326, -2.0192695, 0
882, 2156288246, 0.030696735, -0.65707713, -0.048937228, -0.7516047, -4.015533, 1.094572, -2.2046456, 0
883, 2156304913, 0.029150344, -0.65729946, -0.05051348, -0.7513676, -3.9144235, 1.4218763, 0.70475006, 0
884, 2156321580, 0.027455129, -0.6572265, -0.05175134, -0.751411, -2.955788, 0.955745, 1.3474913, 0
885, 2156338247, 0.025569342, -0.6568479, -0.05264488, -0.75174636, -2.6281688, 1.251934, -0.09510422, 0
886, 2156354914, 0.023476552, -0.65660155, -0.05348544, -0.7519705, -2.0477397, 0.7152642, -0.5011883, 0
887, 2156371581, 0.02120845, -0.6564607, -0.05404497, -0.75212103, -2.866291, 2.0425773, -1.0975847, 0
888, 2156388248, 0.018848766, -0.6566915, -0.05424442, -0.7519679, -2.0450099, 1.6863679, -4.2489395, 0
889, 2156404915, 0.016574234, -0.65710664, -0.054168317, -0.7516643, -1.5043585, 1.7846179, -1.9160986, 0
890, 2156421582, 0.01456558, -0.65769815, -0.053586286, -0.7512302, -0.09687081, 1.3746216, -5.388501, 0
891, 2156438249, 0.012906559, -0.6580878, -0.052399844, -0.75100297, 3.993734, 2.0719645, -0.11160755, 0
892, 2156454916, 0.011587746, -0.65840757, -0.051170386, -0.7508289, 1.0486461, -1.6310623, 10.614763, 0
893, 2156471583, 0.010239333, -0.65910405, -0.050248653, -0.75029945, 4.465982, 0.13179003, -0.24245167, 0
894, 2156488250, 0.0092197135, -0.65946066, -0.04933138, -0.75006014, 7.2441816, 0.654513, -3.405717, 0
895, 2156504917, 0.008332305, -0.6595385, -0.048783407, -0.7500379, 4.5422654, 0.03262557, 2.7185402, 0
896, 2156521584, 0.008060701, -0.65992194, -0.04853259, -0.7497198, 4.871474, -0.18759345, 5.091091, 0
897, 2156538251, 0.008298792, -0.6600177, -0.04849119, -0.74963564, 7.636134, -2.1394403, 4.7482796, 0
898, 2156554918, 0.008861486, -0.6595077, -0.049175072, -0.75003344, 7.071527, -3.183909, 1.5062838, 0
899, 2156571585, 0.00958157, -0.65892667, -0.049995486, -0.750481, 4.71134, 0.058594815, -0.03327942, 0
900, 2156588252, 0.0106081255, -0.6586602, -0.05028475, -0.75068164, 2.0964937, 1.5323334, -0.40137577, 0
901, 2156604919, 0.011887945, -0.6588527, -0.05039103, -0.7504864, 2.3150067, -0.046380043, -0.4292984, 0
902, 2156621586, 0.013183679, -0.6589301, -0.050934143, -0.75036013, 3.5061777, -0.32665223, -0.92984676, 0
903, 2156638253, 0.014415666, -0.65872824, -0.051696714, -0.75046253, 2.0046885, -0.05229774, -0.05439186, 0
904, 2156654920, 0.015255846, -0.6586261, -0.05222717, -0.7504988, 0.5546142, 0.5099535, -0.13941097, 0
905, 2156671587, 0.015622444, -0.65867877, -0.052828923, -0.75040287, -1.4291353, 0.2634565, -1.3913364, 0
906, 2156688254, 0.015556429, -0.6590234, -0.053690046, -0.7500404, -2.4390984, 0.5190662, -0.94275093, 0
907, 2156704921, 0.015301526, -0.65938807, -0.054351516, -0.7496775, -2.7186787, 1.5214006, -0.8026571, 0
908, 2156721588, 0.014893837, -0.65974337, -0.05450754, -0.74936163, -3.746158, 1.8223342, 0.5149288, 0
909, 2156738255, 0.014244795, -0.6601322, -0.05439426, -0.7490401, -3.7030747, 1.2521436, 1.0923834, 0
910, 2156754922, 0.013561416, -0.6602762, -0.05405039, -0.74895066, -4.1174064, 1.5789396, 0.7028599, 0
911, 2156771589, 0.012914609, -0.6602769, -0.053601224, -0.74899393, -3.7960894, 2.6197906, 0.952508, 0
912, 2156788256, 0.012088273, -0.6599869, -0.052937046, -0.7493103, -3.0590491, 2.5317917, 1.0357904, 0
913, 2156804923, 0.010808989, -0.659451, -0.052024025, -0.7498655, -2.043777, 1.6307006, -0.50507736, 0
914, 2156821590, 0.009191111, -0.6586677, -0.051001024, -0.7506453, -1.3473618, 1.6108117, 0.43183994, 0
915, 2156838257, 0.007609017, -0.65799326, -0.049990375, -0.75132215, -2.3382394, 1.3835545, 1.2538252, 0
916, 2156854924, 0.0066855997, -0.65796566, -0.048256796, -0.75146854, -5.305735, 3.9019194, -2.3134594, 0
917, 2156871591, 0.0056843758, -0.6582794, -0.04667609, -0.75130177, -0.34980616, -6.334419, -3.113214, 0
918, 2156888258, 0.004386347, -0.65844405, -0.045820512, -0.751219, 0.36148882, -0.101926796, 2.0060644, 0
919, 2156904925, 0.00371062, -0.65852964, -0.04349812, -0.75128573, -0.6572678, 6.2773376, -3.0688343, 0
920, 2156921592, 0.003919136, -0.6588747, -0.040403288, -0.7511548, -2.5678072, 0.71281904, -3.1251345, 0
921, 2156938259, 0.0040678605, -0.6594266, -0.03859223, -0.75076485, -1.641049, -4.1352887, 0.5936947, 0
922, 2156954926, 0.003611695, -0.6600832, -0.03744534, -0.750248, -2.222563, -1.7775176, 0.7677946, 0
923, 2156971593, 0.0023574382, -0.66058785, -0.035861973, -0.74988616, 0.78418046, 0.6825329, -4.6519165, 0
924, 2156988260, 2.6047975E-4, -0.66114503, -0.03465335, -0.74945545, 1.3264714, -2.746823, 2.8227234, 0
925, 2157004927, -0.0016095787, -0.661782, -0.033988904, -0.7489219, -0.31085882, 5.306404, 3.2934437, 0
926, 2157021594, -0.0024656355, -0.6622343, -0.03268491, -0.7485776, 0.9889923, 7.6484785, 1.1300173, 0
927, 2157038261, -0.0024928674, -0.66219234, -0.030821692, -0.74869365, -0.24295937, 3.867502, 2.1528168, 0
928, 2157054928, -0.0029162504, -0.66192734, -0.029415738, -0.7489829, 0.99512774, -2.3853378, -0.9334612, 0
929, 2157071595, -0.004062481, -0.66154474, -0.029117886, -0.74932724, -0.5996778, -4.341223, -1.7614803, 0
930, 2157088262, -0.005593937, -0.66136825, -0.029553786, -0.749456, 0.36853975, -0.7649818, -0.23923206, 0
931, 2157104929, -0.00709277, -0.66130894, -0.029240474, -0.7495081, 0.92952573, 1.599365, 2.0910254, 0
932, 2157121596, -0.008415645, -0.66131663, -0.028346501, -0.7495219, 0.56201756, 0.940946, -0.19938183, 0
933, 2157138263, -0.0091857165, -0.6612099, -0.027204562, -0.7496496, 1.9380963, 0.932928, 2.0775328, 0
934, 2157154930, -0.009328974, -0.66096395, -0.026264075, -0.7498981, 0.9286233, -0.7781114, -0.6085787, 0
935, 2157171597, -0.008970985, -0.66077995, -0.025648672, -0.7500859, 1.4751265, -0.025468268, 0.4233656, 0
936, 2157188264, -0.008580189, -0.6606018, -0.024774745, -0.75027674, 1.0605358, -0.3149841, 0.7261505, 0
937, 2157204931, -0.008415787, -0.66058904, -0.02386086, -0.7503194, 0.57244366, -0.9135213, -0.08653164, 0
938, 2157221598, -0.008291155, -0.6607783, -0.023382854, -0.7501691, 0.14976706, 0.18311918, -1.6793537, 0
939, 2157238265, -0.008023053, -0.6609353, -0.023244683, -0.75003815, 0.69883615, 0.40802664, -0.47793007, 0
940, 2157254932, -0.007820524, -0.66090876, -0.023293395, -0.75006205, 1.3192022, -1.5134574, 0.38540936, 0
941, 2157271599, -0.00801662, -0.66092205, -0.023472477, -0.75004274, -0.37586954, -1.5119287, -0.07805157, 0
942, 2157288266, -0.008094428, -0.66129744, -0.023269191, -0.7497173, 0.6754285, 2.7062418, -0.93828297, 0
943, 2157304933, -0.007999888, -0.66162074, -0.022933494, -0.7494433, 1.2881745, -0.099959895, 1.9383268, 0
944, 2157321600, -0.0075816847, -0.6618067, -0.022591405, -0.749294, 1.0847313, -0.3453478, 0.6404085, 0
945, 2157338267, -0.00675657, -0.6618934, -0.021961324, -0.74924386, -0.44755158, 0.0523313, 0.8173275, 0
946, 2157354934, -0.00577192, -0.66192555, -0.02120379, -0.7492455, -0.36316693, -0.4878455, -1.1921768, 0
947, 2157371601, -0.0047407933, -0.66199166, -0.020679716, -0.7492091, 0.03631246, -0.005889343, -2.4694247, 0
948, 2157388268, -0.004172623, -0.6619159, -0.020453494, -0.7492856, 0.6647263, -2.3711946, -2.8434772, 0
949, 2157404935, -0.0040626265, -0.66179514, -0.020459913, -0.74939257, -0.78028446, -1.5328867, 2.856616, 0
950, 2157421602, -0.003890425, -0.66190714, -0.020753391, -0.7492865, -2.1601205, -0.25551456, 2.1436462, 0
951, 2157438269, -0.003621079, -0.6623696, -0.021704786, -0.7488522, -0.3239851, 0.7549016, 0.3247137, 0
952, 2157454936, -0.0033108555, -0.66272485, -0.023066401, -0.74849844, 0.18404594, 0.18714882, 1.3665447, 0
953, 2157471603, -0.002888471, -0.6626161, -0.024650179, -0.74854606, 2.3351128, -0.8141878, 1.5860014, 0
954, 2157488270, -0.0024735108, -0.66193897, -0.026371654, -0.749088, -0.14736384, -1.9922633, 2.4808178, 0
955, 2157504937, -0.0021432228, -0.6615069, -0.028368074, -0.7493974, -0.81304574, -1.7141588, -1.4388142, 0
956, 2157521604, -0.0017512105, -0.66126245, -0.030159947, -0.7495442, -0.19246458, -0.22665833, -4.664454, 0
957, 2157538271, -0.0013033748, -0.6614571, -0.03165643, -0.7493115, -3.6461093, -0.49612322, 1.8603344, 0
958, 2157554938, -7.1338937E-4, -0.6617352, -0.033110224, -0.74900407, -2.721835, -0.13869777, 1.120781, 0
959, 2157571605, 1.003705E-4, -0.66162455, -0.03446233, -0.7490411, -2.2052412, -0.011795477, -0.36542225, 0
960, 2157588272, 9.897575E-4, -0.66105664, -0.0356564, -0.7494858, -1.2066245, -1.212103, -2.739811, 0
961, 2157604939, 0.0017215125, -0.66024977, -0.03679545, -0.7501404, -3.757365, -0.03139368, 3.5721216, 0
962, 2157621606, 0.002365224, -0.65959555, -0.037914477, -0.7506583, -6.4783487, -0.5305382, 1.5778885, 0
963, 2157638273, 0.0027634464, -0.6595789, -0.038972978, -0.75061727, -3.363554, -1.4325581, -2.940743, 0
964, 2157654940, 0.0031749606, -0.65961945, -0.03975226, -0.7505391, -2.799866, -0.9120371, -3.9586086, 0
965, 2157671607, 0.0037900545, -0.6599564, -0.040146537, -0.75021905, -4.1120925, -0.16798854, -1.4232931, 0
966, 2157688274, 0.0047005974, -0.6606609, -0.040010624, -0.7496009, -3.0336332, 0.8940667, -4.017383, 0
967, 2157704941, 0.0058693364, -0.66110957, -0.039380547, -0.7492302, -1.3867065, 0.33850944, 0.6067753, 0
968, 2157721608, 0.0067149326, -0.66098005, -0.038668294, -0.74937457, 1.2004436, -0.5542293, -0.003979683, 0
969, 2157738275, 0.0070155896, -0.66060376, -0.038011543, -0.74973726, -1.1660787, 0.21818806, 1.925993, 0
970, 2157754942, 0.0068927854, -0.66070527, -0.037822723, -0.74965847, -4.3701105, 0.32860947, 0.15874863, 0
971, 2157771609, 0.0066682026, -0.6614975, -0.03805923, -0.74894947, -2.668939, 1.5074073, -3.708475, 0
972, 2157788276, 0.006501969, -0.66226304, -0.03861538, -0.74824566, 1.809326, 0.6200902, -5.8728433, 0
973, 2157804943, 0.006087236, -0.6623421, -0.040072445, -0.74810255, 2.8479881, -1.1222554, 2.4143362, 0
974, 2157821610, 0.0050459616, -0.66194886, -0.042453244, -0.7483269, 3.7531307, -2.3154926, 5.2742233, 0
975, 2157838277, 0.0037382245, -0.66164935, -0.045193676, -0.7484392, 3.1642952, 0.43968228, 4.362873, 0
976, 2157854944, 0.0028148107, -0.66162324, -0.0476082, -0.7483163, 3.2392516, -0.20809868, -0.7455044, 0
977, 2157871611, 0.0020744577, -0.6615732, -0.04962977, -0.74823165, 3.6770346, -0.026357157, 0.6120806, 0
978, 2157888278, 0.0015040152, -0.66138726, -0.05116801, -0.7482937, 3.9974058, 1.8510932, 0.34054947, 0
979, 2157904945, 9.570271E-4, -0.6611328, -0.051733624, -0.7484807, 4.600319, 3.5690267, 2.6815777, 0
980, 2157921612, 4.3701753E-4, -0.6606738, -0.051597077, -0.74889594, 4.4831758, 3.3938115, 2.9823084, 0
981, 2157938279, -2.658628E-4, -0.6601092, -0.051305547, -0.7494137, 3.975734, 3.0388968, 0.09499836, 0
982, 2157954946, -0.0012980513, -0.659761, -0.05096865, -0.74974215, 1.6217723, 3.068699, 0.90000343, 0
983, 2157971613, -0.0027613007, -0.6599556, -0.0504942, -0.749599, 0.5420425, 2.3330529, -3.389741, 0
984, 2157988280, -0.004769437, -0.66045403, -0.049658053, -0.74920565, 1.6010585, 2.6485476, -2.5816288, 0
985, 2158004947, -0.0072434135, -0.66085285, -0.048660096, -0.7488994, 0.47683987, 2.927202, 3.2916746, 0
986, 2158021614, -0.009703923, -0.6611334, -0.047708098, -0.74868536, 2.1273324, 2.8647637, 1.9963703, 0
987, 2158038281, -0.0120064765, -0.6609727, -0.046520982, -0.7488685, 1.9244683, 2.0188754, 1.0727005, 0
988, 2158054948, -0.01429577, -0.660795, -0.045279432, -0.74906117, -0.05831213, 1.0680286, -1.3397188, 0
989, 2158071615, -0.016549831, -0.660877, -0.04395313, -0.7490213, -0.7005389, 1.6814922, -0.34188843, 0
990, 2158088282, -0.018783143, -0.6611529, -0.041887973, -0.74884355, -0.69977987, 2.24499, -1.8619084, 0
991, 2158104949, -0.020874009, -0.66157466, -0.03932643, -0.7485545, -0.13867506, 2.0070717, 1.0628262, 0
992, 2158121616, -0.022823956, -0.6617608, -0.037094206, -0.748447, 0.6405129, 1.5037224, 0.8160143, 0
993, 2158138283, -0.024698477, -0.66170025, -0.034751482, -0.74855345, 1.1581936, 2.0165339, 0.4389019, 0
994, 2158154950, -0.026572775, -0.6614095, -0.032001305, -0.7488688, -0.016407989, 2.091798, -0.07253456, 0
995, 2158171617, -0.028385315, -0.6613478, -0.029356517, -0.7489652, -1.912321, 1.3267637, 0.6147442, 0
996, 2158188284, -0.030102793, -0.66154325, -0.02655631, -0.74882996, -0.7009021, 0.97158444, -1.3453913, 0
997, 2158204951, -0.03167318, -0.66176957, -0.023477044, -0.7486681, -0.98034346, 2.024788, -0.8503609, 0
998, 2158221618, -0.033085607, -0.66197073, -0.020443056, -0.7485182, -0.120852016, 1.1085294, -1.109726, 0
999, 2158238285, -0.03458187, -0.6619382, -0.01756246, -0.7485523, -0.46475565, 1.3228191, 2.6310234, 0
1000, 2158254952, -0.035970423, -0.66191715, -0.014761779, -0.748566, -1.2430302, 1.4292028, 0.49105453, 0
1001, 2158271619, -0.03704548, -0.6620548, -0.011999868, -0.74844116, -0.3365506, 0.41293007, -1.5084572, 0
1002, 2158288286, -0.03807405, -0.662136, -0.009420387, -0.7483547, -0.98979986, -0.07900518, -0.07646656, 0
1003, 2158304953, -0.039096996, -0.6621803, -0.006968707, -0.7482895, 0.21736284, 0.6954888, 0.1761427, 0
1004, 2158321620, -0.04011877, -0.6620446, -0.004395023, -0.7483751, 3.774628E-4, 1.3852001, 0.36294365, 0
1005, 2158338287, -0.04089024, -0.66186583, -0.0022688657, -0.748501, -0.62358177, 0.4009604, 0.42725086, 0
1006, 2158354954, -0.041667197, -0.6618311, -4.5853108E-4, -0.7484921, -0.457283, -0.33393812, 1.4097052, 0
1007, 2158371621, -0.042513028, -0.6619757, 0.0012631826, -0.74831575, -1.2646024, 0.81332636, -0.59307003, 0
1008, 2158388288, -0.04325029, -0.6623463, 0.0028281417, -0.74794126, -0.5313765, 0.39007246, -2.4014912, 0
1009, 2158404955, -0.044144347, -0.6625201, 0.0043831486, -0.7477274, 0.41767085, -0.4265723, -1.1455259, 0
1010, 2158421622, -0.044862337, -0.6623131, 0.005853882, -0.747858, -0.031884573, 0.4433571, 1.5287895, 0
1011, 2158438289, -0.045197498, -0.66198504, 0.0071321726, -0.74811727, -0.54580057, 0.059988517, 0.70550823, 0
1012, 2158454956, -0.0454562, -0.66184086, 0.00853101, -0.7482145, -1.9280024, 0.28219864, 3.2142105, 0
1013, 2158471623, -0.04571733, -0.66197133, 0.009928035, -0.7480658, -1.1538337, 0.3198866, -2.1812663, 0
1014, 2158488290, -0.04581659, -0.6622031, 0.011337144, -0.7478345, -0.11721302, -0.38925698, -1.2267141, 0
1015, 2158504957, -0.045855127, -0.66220975, 0.012907518, -0.7478009, -2.091956, 0.012353361, 1.5407562, 0
1016, 2158521624, -0.045756616, -0.6623557, 0.01433702, -0.74765164, -1.2690518, 0.7571119, -3.0425777, 0
1017, 2158538291, -0.045493536, -0.66248584, 0.015831428, -0.7475222, -1.4153502, 0.3547591, 0.12764072, 0
1018, 2158554958, -0.04536651, -0.6625104, 0.01728349, -0.74747604, -0.80813444, -0.12032631, 2.801464, 0
1019, 2158571625, -0.045048457, -0.66231143, 0.018098142, -0.74765223, 0.15608639, -0.94727784, 1.7447491, 0
1020, 2158588292, -0.044896554, -0.6620354, 0.018802194, -0.74788845, -1.5794939, -1.2293973, -0.46034527, 0
1021, 2158604959, -0.044678953, -0.6621186, 0.01954856, -0.74780864, -3.688474, 0.39782402, -3.40104, 0
1022, 2158621626, -0.04428082, -0.6623977, 0.019760631, -0.74757963, -3.3512144, -0.7462103, -2.8191142, 0
1023, 2158638293, -0.04401814, -0.6626106, 0.0196409, -0.7474096, -2.8006527, -1.4240004, 4.764946, 0
1024, 2158654960, -0.04379603, -0.6624158, 0.019099932, -0.7476093, -2.79001, -1.7458053, 4.045409, 0
1025, 2158671627, -0.043541208, -0.6621726, 0.01826591, -0.7478604, -4.056426, -2.4845817, -1.9420457, 0
1026, 2158688294, -0.043150246, -0.6624357, 0.017410953, -0.7476705, -8.068988, -0.9701797, -3.8453116, 0
1027, 2158704961, -0.042265616, -0.66331583, 0.016581995, -0.7469592, -8.188971, -0.45413107, -4.576396, 0
1028, 2158721628, -0.040997475, -0.6641868, 0.015895713, -0.74627066, -6.9960604, -1.2503158, -0.11229801, 0
1029, 2158738295, -0.03953718, -0.6643154, 0.0151137, -0.7462511, -2.6173594, -3.5972462, -2.8149686, 0
1030, 2158754962, -0.037988212, -0.6641125, 0.014390511, -0.7465263, -4.0730004, -2.254612, 3.5467978, 0
1031, 2158771629, -0.03596485, -0.66405433, 0.01384237, -0.7466886, -8.058392, -1.7172599, 1.1479063, 0
1032, 2158788296, -0.033725284, -0.6646289, 0.013105635, -0.74629515, -4.4886675, -3.0744126, -5.178151, 0
1033, 2158804963, -0.031567346, -0.6651125, 0.012013966, -0.74597704, -3.7420475, -1.5069802, 0.22691727, 0
1034, 2158821630, -0.029292967, -0.6656963, 0.0101398695, -0.74557674, -4.285048, -2.3203297, 2.126832, 0
1035, 2158838297, -0.027384095, -0.6666179, 0.0075997356, -0.7448559, -0.7987216, -2.552079, -0.5251751, 0
1036, 2158854964, -0.025931187, -0.6675302, 0.004556913, -0.7441152, 2.2761593, -2.7065496, -2.8854723, 0
1037, 2158871631, -0.024839044, -0.6681855, 0.0010898225, -0.74357736, 5.667783, -2.713376, 1.152955, 0
1038, 2158888298, -0.023909524, -0.6687133, -0.002101604, -0.743131, 4.8286557, -0.9205222, 6.329649, 0
1039, 2158904965, -0.022995843, -0.6692147, -0.004650224, -0.74269676, 8.7288475, 0.30121967, -1.8113012, 0
1040, 2158921632, -0.022064941, -0.6695464, -0.0065981187, -0.7424112, 7.6686883, 2.1344476, 3.198206, 0
1041, 2158938299, -0.021390911, -0.6699703, -0.008066736, -0.7420341, 7.802822, 2.7965553, 1.2996626, 0
1042, 2158954966, -0.021168407, -0.670423, -0.009233318, -0.74161786, 8.652426, 4.1359844, 0.5064182, 0
1043, 2158971633, -0.021480115, -0.67076147, -0.010025017, -0.7412923, 7.2966847, 3.7985804, 1.1173506, 0
1044, 2158988300, -0.022383353, -0.67102987, -0.010617528, -0.74101436, 6.471776, 2.8512154, 3.0022688, 0
1045, 2159004967, -0.024053965, -0.6710795, -0.011659138, -0.7409014, 5.9611406, 2.0875256, -0.16187382, 0
1046, 2159021634, -0.026364455, -0.6709871, -0.012670834, -0.74088997, 2.6027832, 3.2973454, -0.5603399, 0
1047, 2159038301, -0.028988335, -0.67115545, -0.013209131, -0.74063003, 0.6851247, 2.3153996, -0.2457695, 0
1048, 2159054968, -0.03177785, -0.6715293, -0.013579264, -0.7401699, 0.47871026, 1.5974046, 1.9118805, 0
1049, 2159071635, -0.034703523, -0.67181426, -0.013833392, -0.73977494, 2.052455, 1.8974323, -0.33069992, 0
1050, 2159088302, -0.037598442, -0.67162126, -0.013695069, -0.73981136, 2.3090818, 2.9514837, -1.2180805, 0
1051, 2159104969, -0.04038261, -0.6711042, -0.013196956, -0.74014294, 0.61555856, 2.3347251, -0.24124432, 0
1052, 2159121636, -0.04308011, -0.67082894, -0.012649804, -0.74024975, -0.9555549, 1.2058895, 1.5815983, 0
1053, 2159138303, -0.04590307, -0.6709204, -0.011917267, -0.74000937, -1.2068937, 1.400243, 0.8522558, 0
1054, 2159154970, -0.04870446, -0.6710593, -0.010961618, -0.7397191, -0.2424423, 2.0202694, -1.6368418, 0
1055, 2159171637, -0.051424302, -0.67102295, -0.009572677, -0.7395872, -0.01940895, 2.3132093, -0.70196915, 0
1056, 2159188304, -0.05406617, -0.6707965, -0.008112043, -0.73962176, -0.0063149463, 0.8121283, 1.3250561, 0
1057, 2159204971, -0.05656048, -0.6706084, -0.006669428, -0.7396201, 0.16158639, 1.2529448, 1.8709326, 0
1058, 2159221638, -0.058900833, -0.67040926, -0.004947625, -0.73963153, -0.48153353, 1.3117621, -0.7681141, 0
1059, 2159238305, -0.060908042, -0.67028934, -0.003066752, -0.73958784, 0.55632794, 1.3913364, -1.4171, 0
1060, 2159254972, -0.062648885, -0.6700577, -6.1579794E-4, -0.7396585, -0.47165683, 1.4481434, 2.3949375, 0
1061, 2159271639, -0.06416466, -0.6700697, 0.0021458305, -0.73951465, -0.8694401, 1.3420017, -1.2394896, 0
1062, 2159288306, -0.06527518, -0.6702971, 0.0052091964, -0.7391962, 0.1425406, 1.4284773, -0.3428583, 0
1063, 2159304973, -0.06619349, -0.67035425, 0.008660473, -0.73903024, 0.39786878, 1.2770178, -0.6837158, 0
1064, 2159321640, -0.06683526, -0.670233, 0.012324903, -0.7390305, 1.4770046, 1.6609998, 3.041026, 0
1065, 2159338307, -0.06738005, -0.6696952, 0.016083084, -0.73939633, -0.045564298, 0.87874866, 0.48085785, 0
1066, 2159354974, -0.06806271, -0.6695664, 0.01950156, -0.7393681, 0.20092376, 0.76969534, -5.490716, 0
1067, 2159371641, -0.06866169, -0.66953653, 0.022995297, -0.7392394, -1.8225431, 1.9946531, 0.5525465, 0
1068, 2159388308, -0.06929718, -0.669798, 0.027014883, -0.7388071, -1.0149518, 2.6220493, -0.2654457, 0
1069, 2159404975, -0.06979797, -0.66994035, 0.030661182, -0.7384885, 1.7767087, -0.5718368, 1.8259964, 0
1070, 2159421642, -0.07063761, -0.6695629, 0.033405956, -0.73863184, 1.6254747, -0.7490128, 0.0803051, 0
1071, 2159438309, -0.07120055, -0.6690906, 0.035946984, -0.73888636, 0.7488334, 1.4954737, 1.1716194, 0
1072, 2159454976, -0.07157192, -0.66864824, 0.038996346, -0.73909646, -1.7811795, 1.4109511, 0.65849304, 0
1073, 2159471643, -0.07187432, -0.6688357, 0.041994758, -0.7387331, -1.1262435, -0.57116735, -1.2019863, 0
1074, 2159488310, -0.07196525, -0.66911495, 0.04423653, -0.73834056, 0.14866948, -1.118741, -1.5551672, 0
1075, 2159504977, -0.07189379, -0.66914016, 0.046417266, -0.7381908, 0.46348572, 0.029968143, 1.5577116, 0
1076, 2159521644, -0.0716172, -0.6688104, 0.04870822, -0.7383686, 0.66850173, -0.42441273, -0.15536022, 0
1077, 2159538311, -0.07123336, -0.6684548, 0.05082546, -0.73858505, -0.6191148, -1.3361995, 0.75456715, 0
1078, 2159554978, -0.07055016, -0.6683286, 0.05250085, -0.7386477, -0.90893644, -0.6380906, -0.27684212, 0
1079, 2159571645, -0.069639444, -0.6682749, 0.053888027, -0.73868287, -0.20617001, -0.26787695, -2.1961184, 0
1080, 2159588312, -0.068714395, -0.66815174, 0.055298403, -0.73877674, 0.75786304, -1.4761492, 2.3957577, 0
1081, 2159604979, -0.06776004, -0.6678624, 0.056268502, -0.739053, -0.30013984, -2.22646, 1.6514959, 0
1082, 2159621646, -0.06679082, -0.6678446, 0.056657832, -0.7391277, -0.5906447, -1.430889, -1.1679592, 0
1083, 2159638313, -0.065644614, -0.6680535, 0.05673566, -0.7390357, -1.2099308, -0.7893804, -0.6251354, 0
1084, 2159654980, -0.06445204, -0.66827124, 0.056696173, -0.7389467, -0.5006379, -0.63148636, -0.47477913, 0
1085, 2159671647, -0.06328058, -0.66815764, 0.056373537, -0.7391754, 0.6345399, -1.6702807, -0.3482561, 0
1086, 2159688314, -0.06208183, -0.6675758, 0.055546455, -0.739865, 0.03538958, -2.0446153, -0.31878853, 0
1087, 2159704981, -0.060818933, -0.667026, 0.054725207, -0.74052656, -1.6392906, -1.050278, 1.0705385, 0
1088, 2159721648, -0.059363425, -0.6667466, 0.054215588, -0.7409336, -3.8185697, -0.754522, 2.0787287, 0
1089, 2159738315, -0.057802066, -0.6671753, 0.05394528, -0.74069095, -4.7428308, -0.6965548, 0.28174877, 0
1090, 2159754982, -0.056162186, -0.66793394, 0.0535099, -0.7401649, -2.7231185, -0.9213983, -2.4497976, 0
1091, 2159771649, -0.05469068, -0.6682808, 0.052797265, -0.7400132, -1.3830038, -1.258933, -1.2800589, 0
1092, 2159788316, -0.053402092, -0.6682691, 0.05207733, -0.74016887, -3.8747387, -0.3874155, 3.2620535, 0
1093, 2159804983, -0.052161906, -0.6680374, 0.05113389, -0.7405319, -3.9811633, -0.76687956, -2.5347705, 0
1094, 2159821650, -0.050950322, -0.6681516, 0.049622077, -0.7406163, -5.0964413, -1.3183447, -3.2277741, 0
1095, 2159838317, -0.049760535, -0.66859806, 0.04790204, -0.7404075, -6.4285283, -0.2842699, -0.23763752, 0
1096, 2159854984, -0.048644308, -0.66907156, 0.046111424, -0.7401674, -4.253705, -1.7455765, -1.7281189, 0
1097, 2159871651, -0.04776313, -0.6692319, 0.04374939, -0.7402232, -3.2549298, -2.6884553, 0.50186825, 0
1098, 2159888318, -0.047152527, -0.669221, 0.040905565, -0.74043477, -4.7346153, -1.2085567, 5.396372, 0
1099, 2159904985, -0.04643363, -0.6693703, 0.038289275, -0.74048525, -5.029842, -0.1924159, -2.04918, 0
1100, 2159921652, -0.04563864, -0.6702077, 0.03594567, -0.7398946, -6.2759576, -1.42122, -3.5642576, 0
1101, 2159938319, -0.044706546, -0.6714719, 0.033464562, -0.7389211, -5.663532, -1.5161275, -5.115407, 0
1102, 2159954986, -0.043658037, -0.67269474, 0.030912261, -0.73798203, -3.3878992, -1.1332643, -1.8836293, 0
1103, 2159971653, -0.042942584, -0.6732374, 0.028345378, -0.737632, -0.91432536, -1.8821418, 7.4164677, 0
1104, 2159988320, -0.042547822, -0.6734633, 0.025576435, -0.73755, 2.6974642, -0.833473, 4.462331, 0
1105, 2160004987, -0.042339705, -0.67361826, 0.023071472, -0.737503, 4.5777345, 0.08405487, -5.5701857, 0
1106, 2160021654, -0.042199716, -0.6738735, 0.021202546, -0.73733395, 3.5175955, 0.56496584, -5.227623, 0
1107, 2160038321, -0.04201835, -0.67428446, 0.020061538, -0.73700047, 5.360991, -0.28996867, 1.7777119, 0
1108, 2160054988, -0.042050503, -0.67489994, 0.019510407, -0.73644984, 6.535885, 0.8336299, 5.128722, 0
1109, 2160071655, -0.042241275, -0.6755861, 0.019710291, -0.7358043, 9.374611, 2.9399517, 3.9712715, 0
1110, 2160088322, -0.0426344, -0.67574406, 0.02016807, -0.73562413, 9.096476, 2.416748, 1.7249155, 0
1111, 2160104989, -0.043183424, -0.67578703, 0.020479878, -0.73554385, 7.7493067, 2.9889653, 2.1956692, 0
1112, 2160121656, -0.04409539, -0.67602646, 0.020936105, -0.7352569, 6.438551, 2.811668, 2.7152672, 0
1113, 2160138323, -0.045603245, -0.6765263, 0.021310972, -0.73469406, 4.979584, 1.4343601, 1.4232454, 0
1114, 2160154990, -0.04789131, -0.6770018, 0.02139695, -0.7341079, 6.2156854, 0.748859, -2.919362, 0
1115, 2160171657, -0.050744552, -0.6771391, 0.021148669, -0.73379666, 4.4530797, 1.9279798, -0.74444103, 0
1116, 2160188324, -0.05363618, -0.6774171, 0.020797454, -0.7333443, 1.3386706, 1.7304469, 2.3533583, 0
1117, 2160204991, -0.056515418, -0.67786866, 0.02037941, -0.73272234, 2.9092371, 0.47684807, -2.7387042, 0
1118, 2160221658, -0.059217732, -0.6780139, 0.019906193, -0.7323873, 2.2262619, 0.77735066, 3.5166636, 0
1119, 2160238325, -0.06170357, -0.67821276, 0.019323755, -0.7320137, -0.12625504, 0.7625998, 1.579339, 0
1120, 2160254992, -0.0640147, -0.67883104, 0.018815462, -0.7312549, 0.08273371, 0.7325922, -1.7436733, 0
1121, 2160271659, -0.06622491, -0.67939055, 0.018354923, -0.73054993, -1.4320594, 0.43549174, -1.6603699, 0
1122, 2160288326, -0.06824059, -0.68013585, 0.018283859, -0.72967196, -1.2340183, 0.9564384, 0.87921524, 0
1123, 2160304993, -0.07000408, -0.68056643, 0.018654482, -0.729094, -0.29150426, 0.36000305, 2.2739391, 0
1124, 2160321660, -0.07170077, -0.6808221, 0.01913504, -0.7286778, -0.27536556, 0.071417294, -0.8301878, 0
1125, 2160338327, -0.07324709, -0.6808499, 0.019851448, -0.72847885, -0.5327642, 0.9546446, 0.24251938, 0
1126, 2160354994, -0.074598, -0.6809637, 0.020980783, -0.7282038, -1.8649495, 1.7554566, 0.10030174, 0
1127, 2160371661, -0.0757955, -0.6814067, 0.022673685, -0.7276146, -1.7364348, 1.5365602, 0.95011806, 0
1128, 2160388328, -0.0769418, -0.68177944, 0.024375387, -0.7270899, -0.12428492, 0.3133752, -0.4823408, 0
1129, 2160404995, -0.07811843, -0.6818933, 0.026142454, -0.7267962, 1.2703207, 0.6859129, 0.0051517487, 0
1130, 2160421662, -0.079213195, -0.68145996, 0.027642729, -0.7270286, 2.6101656, 0.22022238, -2.253223, 0
1131, 2160438329, -0.08017364, -0.6809222, 0.02890291, -0.7273782, 0.38866207, 0.43089706, 0.9480667, 0
